{
  "resourceType": "Bundle",
  "id": "76110",
  "fhir_comments": [
    "\nBob Milius - NMDP - 2017-03-25\n\nAssume these are already created ahead of time before the HLA report bundle is created.\nYou would use the resources created here for those in the report bundle.\nTransaction bundle that creates and links:\n+ Patient (potential donor, John Storm)\n+ Specimen from that Patient, which was collected as a buccal swab\n+ Organization of Typing Lab (aTypingLab, Inc)\n+ Organization of donor registry (aDonorRegistry)\n+ ProcedureRequest for HLA-A,-B,-C typing of patient(donor)\n\nThe second part of this bundle contains the resources that would be contained\nin a separate transaction bundle to be sent as the HLA typing report.\nand include the following:\n+ DiagnosticReport summarizing genotyping for HLA-A,-B,-C typing of patient(donor)\n+ Obervations for each genotype\n+ Observations for each allele\n+ Sequences for exons 2 and 3 for HLA-A,-B,-C\n"
  ],
  "type": "collection",
  "entry": [
    {
      "fhir_comments": [
        "    now, each entry is an action to take in the transaction    "
      ],
      "fullUrl": "urn:uuid:13f34265-335c-4853-bc38-0815315edafa",
      "resource": {
        "resourceType": "Patient",
        "text": {
          "status": "generated",
          "div": "<div xmlns=\"http://www.w3.org/1999/xhtml\">\n                    <h4>Donor </h4>\n                    <p>name: John Storm</p>\n                    <p>gender: male</p>\n                    <p>born: 1986-12-31</p>\n                </div>"
        },
        "identifier": [
          {
            "use": "usual",
            "type": {
              "coding": [
                {
                  "system": "http://hl7.org/fhir/v2/0203",
                  "code": "DR"
                }
              ]
            },
            "system": "urn:oid:0.0.0.0.0.0.0",
            "value": "12345",
            "period": {
              "start": "2012-11-10"
            },
            "assigner": {
              "display": "aDonorRegistry"
            }
          }
        ],
        "name": [
          {
            "use": "official",
            "text": "John Storm",
            "family": "Storm",
            "given": [
              "John"
            ]
          },
          {
            "use": "nickname",
            "text": "Johnny Storm",
            "family": "Storm",
            "given": [
              "Johnny"
            ]
          },
          {
            "use": "nickname",
            "text": "The Human Torch"
          }
        ],
        "gender": "male",
        "birthDate": "1986-12-31"
      },
      "request": {
        "fhir_comments": [
          "    now, details about the action to take with the resource    "
        ],
        "method": "POST",
        "url": "Patient"
      }
    },
    {
      "fullUrl": "urn:uuid:e44fbe33-6084-4ae2-a95e-8bc451c63340",
      "resource": {
        "resourceType": "Specimen",
        "text": {
          "status": "generated",
          "div": "<div xmlns=\"http://www.w3.org/1999/xhtml\"><pre>a buccal swab</pre></div>"
        },
        "identifier": [
          {
            "system": "http://myorgsurl.com",
            "value": "123"
          }
        ],
        "accessionIdentifier": {
          "system": "http://mylabsurl.com",
          "value": "456"
        },
        "type": {
          "coding": [
            {
              "system": "http://snomed.info/sct",
              "code": "258564008",
              "display": "Buccal smear sample"
            }
          ]
        },
        "subject": {
          "reference": "urn:uuid:13f34265-335c-4853-bc38-0815315edafa",
          "display": "John Storm"
        },
        "collection": {
          "collectedDateTime": "2016-11-10",
          "method": {
            "coding": [
              {
                "system": "http://hl7.org/fhir/v2/0488",
                "code": "SWA"
              }
            ]
          },
          "bodySite": {
            "coding": [
              {
                "system": "http://snomed.info/sct",
                "code": "261063000",
                "display": "Buccal space"
              }
            ],
            "text": "Buccal space"
          }
        }
      },
      "request": {
        "fhir_comments": [
          "    now, details about the action to take with the resource    "
        ],
        "method": "POST",
        "url": "Specimen"
      }
    },
    {
      "fullUrl": "urn:uuid:9243cc20-27bd-4f87-ba90-0328ed474950",
      "resource": {
        "resourceType": "Organization",
        "text": {
          "status": "generated",
          "div": "<div xmlns=\"http://www.w3.org/1999/xhtml\"><pre>aTypingLab, Inc</pre></div>"
        },
        "name": "aTypingLab Inc",
        "alias": [
          "aTL"
        ],
        "telecom": [
          {
            "system": "phone",
            "value": "1-800-555-1234",
            "use": "work",
            "rank": 1
          }
        ],
        "address": [
          {
            "use": "work",
            "type": "both",
            "text": "123 Main St, Sometown, ND 99999",
            "line": [
              "123 Main St"
            ],
            "city": "Sometown",
            "state": "ND",
            "postalCode": "99999",
            "country": "USA"
          }
        ]
      },
      "request": {
        "fhir_comments": [
          "    transaction details    "
        ],
        "method": "POST",
        "url": "Organization"
      }
    },
    {
      "fullUrl": "urn:uuid:00ef18ad-ed04-4b2c-81ee-b69bb243f0d5",
      "resource": {
        "resourceType": "Organization",
        "text": {
          "status": "generated",
          "div": "<div xmlns=\"http://www.w3.org/1999/xhtml\"><pre>aDonorRegistry</pre></div>"
        },
        "name": "aDonorRegistry",
        "alias": [
          "ADR"
        ],
        "telecom": [
          {
            "system": "phone",
            "value": "1-800-555-6789",
            "use": "work",
            "rank": 1
          }
        ],
        "address": [
          {
            "use": "work",
            "type": "both",
            "text": "456 Main St, Anytown ND, 00000",
            "line": [
              "456 Main St"
            ],
            "city": "Anytown",
            "state": "ND",
            "postalCode": "00000",
            "country": "USA"
          }
        ]
      },
      "request": {
        "fhir_comments": [
          "    transaction details    "
        ],
        "method": "POST",
        "url": "Organization"
      }
    },
    {
      "fullUrl": "urn:uuid:99309303-045e-4cf4-90d7-250d7a7476ea",
      "resource": {
        "resourceType": "ProcedureRequest",
        "text": {
          "status": "generated",
          "div": "<div xmlns=\"http://www.w3.org/1999/xhtml\"><pre>HLA typing request for John Storm</pre></div>"
        },
        "status": "completed",
        "intent": "order",
        "code": {
          "coding": [
            {
              "system": "http://loinc.org",
              "code": "13303-3",
              "display": "HLA-A+​B+​C (class I) [Type]"
            }
          ]
        },
        "subject": {
          "reference": "urn:uuid:13f34265-335c-4853-bc38-0815315edafa",
          "display": "John Storm"
        },
        "authoredOn": "2016-11-15",
        "requester": {
          "agent": {
            "reference": "urn:uuid:00ef18ad-ed04-4b2c-81ee-b69bb243f0d5",
            "display": "aDonorRegistry"
          }
        },
        "performer": {
          "reference": "urn:uuid:9243cc20-27bd-4f87-ba90-0328ed474950",
          "display": "aTypingLab, Inc"
        },
        "reasonCode": [
          {
            "text": "tissue typing for donor registry"
          }
        ]
      },
      "request": {
        "fhir_comments": [
          "    transaction details    "
        ],
        "method": "POST",
        "url": "DiagnosticOrder"
      }
    },
    {
      "fhir_comments": [
        " the following is the actual report "
      ],
      "fullUrl": "urn:uuid:8200dab6-18a2-4550-b913-a7db480c0804",
      "resource": {
        "resourceType": "Sequence",
        "text": {
          "status": "generated",
          "div": "<div xmlns=\"http://www.w3.org/1999/xhtml\">\n                        <pre>&quot;HLA-A*01:01:01:01, exon 2&quot;</pre>\n                    </div>"
        },
        "type": "dna",
        "coordinateSystem": 0,
        "patient": {
          "reference": "urn:uuid:13f34265-335c-4853-bc38-0815315edafa",
          "display": "John Storm"
        },
        "specimen": {
          "reference": "urn:uuid:e44fbe33-6084-4ae2-a95e-8bc451c63340",
          "display": "buccal swab from John Storm"
        },
        "referenceSeq": {
          "referenceSeqId": {
            "coding": [
              {
                "system": "http://www.ebi.ac.uk/ipd/imgt/hla/",
                "version": "3.23",
                "code": "HLA00001"
              }
            ],
            "text": "HLA-A*01:01:01:01"
          },
          "windowStart": 503,
          "windowEnd": 773
        },
        "observedSeq": ""
      },
      "request": {
        "fhir_comments": [
          "    transaction details    "
        ],
        "method": "POST",
        "url": "Sequence"
      }
    },
    {
      "fullUrl": "urn:uuid:7c393185-f15c-45bc-a714-c0fdbea32675",
      "resource": {
        "resourceType": "Sequence",
        "text": {
          "status": "generated",
          "div": "<div xmlns=\"http://www.w3.org/1999/xhtml\">\n                        <pre>&quot;HLA-A*01:01:01:01, exon 3&quot;</pre>\n                    </div>"
        },
        "type": "dna",
        "coordinateSystem": 0,
        "patient": {
          "reference": "urn:uuid:13f34265-335c-4853-bc38-0815315edafa",
          "display": "John Storm"
        },
        "specimen": {
          "reference": "urn:uuid:e44fbe33-6084-4ae2-a95e-8bc451c63340",
          "display": "buccal swab from John Storm"
        },
        "referenceSeq": {
          "referenceSeqId": {
            "coding": [
              {
                "system": "http://www.ebi.ac.uk/ipd/imgt/hla/",
                "version": "3.23",
                "code": "HLA00001"
              }
            ],
            "text": "HLA-A*01:01:01:01"
          },
          "windowStart": 1014,
          "windowEnd": 1290
        },
        "observedSeq": ""
      },
      "request": {
        "fhir_comments": [
          "    transaction details    "
        ],
        "method": "POST",
        "url": "Sequence"
      }
    },
    {
      "fullUrl": "urn:uuid:65c85f14-c3a0-4b72-818f-820e04fcc621",
      "resource": {
        "resourceType": "Sequence",
        "text": {
          "status": "generated",
          "div": "<div xmlns=\"http://www.w3.org/1999/xhtml\">\n                        <pre>&quot;HLA-A*01:02, exon 2&quot;</pre>\n                    </div>"
        },
        "type": "dna",
        "coordinateSystem": 0,
        "patient": {
          "reference": "urn:uuid:13f34265-335c-4853-bc38-0815315edafa",
          "display": "John Storm"
        },
        "specimen": {
          "reference": "urn:uuid:e44fbe33-6084-4ae2-a95e-8bc451c63340",
          "display": "buccal swab from John Storm"
        },
        "referenceSeq": {
          "referenceSeqId": {
            "coding": [
              {
                "system": "http://www.ebi.ac.uk/ipd/imgt/hla/",
                "version": "3.23",
                "code": "HLA00002"
              }
            ],
            "text": "HLA-A*01:02"
          },
          "windowStart": 503,
          "windowEnd": 773
        },
        "observedSeq": ""
      },
      "request": {
        "fhir_comments": [
          "    transaction details    "
        ],
        "method": "POST",
        "url": "Sequence"
      }
    },
    {
      "fullUrl": "urn:uuid:fbba9fe7-0ece-4ec1-9233-a437a8d242a0",
      "resource": {
        "resourceType": "Sequence",
        "text": {
          "status": "generated",
          "div": "<div xmlns=\"http://www.w3.org/1999/xhtml\">\n                        <pre>&quot;HLA-A*01:02, exon 3&quot;</pre>\n                    </div>"
        },
        "type": "dna",
        "coordinateSystem": 0,
        "patient": {
          "reference": "urn:uuid:13f34265-335c-4853-bc38-0815315edafa",
          "display": "John Storm"
        },
        "specimen": {
          "reference": "urn:uuid:e44fbe33-6084-4ae2-a95e-8bc451c63340",
          "display": "buccal swab from John Storm"
        },
        "referenceSeq": {
          "referenceSeqId": {
            "coding": [
              {
                "system": "http://www.ebi.ac.uk/ipd/imgt/hla/",
                "version": "3.23",
                "code": "HLA00002"
              }
            ],
            "text": "HLA-A*01:02"
          },
          "windowStart": 1014,
          "windowEnd": 1290
        },
        "observedSeq": ""
      },
      "request": {
        "fhir_comments": [
          "    transaction details    "
        ],
        "method": "POST",
        "url": "Sequence"
      }
    },
    {
      "fullUrl": "urn:uuid:cbabf93e-1b4b-46f2-ba1e-d84862670670",
      "resource": {
        "resourceType": "Sequence",
        "text": {
          "status": "generated",
          "div": "<div xmlns=\"http://www.w3.org/1999/xhtml\">\n                        <pre>&quot;HLA-B*15:01:01:01, exon 2&quot;</pre>\n                    </div>"
        },
        "type": "dna",
        "coordinateSystem": 0,
        "patient": {
          "reference": "urn:uuid:13f34265-335c-4853-bc38-0815315edafa",
          "display": "John Storm"
        },
        "specimen": {
          "reference": "urn:uuid:e44fbe33-6084-4ae2-a95e-8bc451c63340",
          "display": "buccal swab from John Storm"
        },
        "referenceSeq": {
          "referenceSeqId": {
            "coding": [
              {
                "system": "http://www.ebi.ac.uk/ipd/imgt/hla/",
                "version": "3.23",
                "code": "HLA00162"
              }
            ],
            "text": "HLA-B*15:01:01:01"
          },
          "windowStart": 486,
          "windowEnd": 756
        },
        "observedSeq": ""
      },
      "request": {
        "fhir_comments": [
          "    transaction details    "
        ],
        "method": "POST",
        "url": "Sequence"
      }
    },
    {
      "fullUrl": "urn:uuid:c233ad3d-1572-48d6-93da-0a583535e138",
      "resource": {
        "resourceType": "Sequence",
        "text": {
          "status": "generated",
          "div": "<div xmlns=\"http://www.w3.org/1999/xhtml\">\n                        <pre>&quot;HLA-B*15:01:01:01, exon 3&quot;</pre>\n                    </div>"
        },
        "type": "dna",
        "coordinateSystem": 0,
        "patient": {
          "reference": "urn:uuid:13f34265-335c-4853-bc38-0815315edafa",
          "display": "John Storm"
        },
        "specimen": {
          "reference": "urn:uuid:e44fbe33-6084-4ae2-a95e-8bc451c63340",
          "display": "buccal swab from John Storm"
        },
        "referenceSeq": {
          "referenceSeqId": {
            "coding": [
              {
                "system": "http://www.ebi.ac.uk/ipd/imgt/hla/",
                "version": "3.23",
                "code": "HLA00162"
              }
            ],
            "text": "HLA-B*15:01:01:01"
          },
          "windowStart": 1001,
          "windowEnd": 1277
        },
        "observedSeq": ""
      },
      "request": {
        "fhir_comments": [
          "    transaction details    "
        ],
        "method": "POST",
        "url": "Sequence"
      }
    },
    {
      "fullUrl": "urn:uuid:05fa52d7-5c67-460a-8722-d3460b24d6fe",
      "resource": {
        "resourceType": "Sequence",
        "text": {
          "status": "generated",
          "div": "<div xmlns=\"http://www.w3.org/1999/xhtml\">\n                        <pre>&quot;HLA-B*57:01:01, exon 2&quot;</pre>\n                    </div>"
        },
        "type": "dna",
        "coordinateSystem": 0,
        "patient": {
          "reference": "urn:uuid:13f34265-335c-4853-bc38-0815315edafa",
          "display": "John Storm"
        },
        "specimen": {
          "reference": "urn:uuid:e44fbe33-6084-4ae2-a95e-8bc451c63340",
          "display": "buccal swab from John Storm"
        },
        "referenceSeq": {
          "referenceSeqId": {
            "coding": [
              {
                "system": "http://www.ebi.ac.uk/ipd/imgt/hla/",
                "version": "3.23",
                "code": "HLA00381"
              }
            ],
            "text": "HLA-B*57:01:01"
          },
          "windowStart": 485,
          "windowEnd": 755
        },
        "observedSeq": ""
      },
      "request": {
        "fhir_comments": [
          "    transaction details    "
        ],
        "method": "POST",
        "url": "Sequence"
      }
    },
    {
      "fullUrl": "urn:uuid:db69e549-6267-4777-b4b9-8813f3329309",
      "resource": {
        "resourceType": "Sequence",
        "text": {
          "status": "generated",
          "div": "<div xmlns=\"http://www.w3.org/1999/xhtml\">\n                        <pre>&quot;HLA-B*57:01:01, exon 3&quot;</pre>\n                    </div>"
        },
        "type": "dna",
        "coordinateSystem": 0,
        "patient": {
          "reference": "urn:uuid:13f34265-335c-4853-bc38-0815315edafa",
          "display": "John Storm"
        },
        "specimen": {
          "reference": "urn:uuid:e44fbe33-6084-4ae2-a95e-8bc451c63340",
          "display": "buccal swab from John Storm"
        },
        "referenceSeq": {
          "referenceSeqId": {
            "coding": [
              {
                "system": "http://www.ebi.ac.uk/ipd/imgt/hla/",
                "version": "3.23",
                "code": "HLA00381"
              }
            ],
            "text": "HLA-B*57:01:01"
          },
          "windowStart": 1001,
          "windowEnd": 1277
        },
        "observedSeq": ""
      },
      "request": {
        "fhir_comments": [
          "    transaction details    "
        ],
        "method": "POST",
        "url": "Sequence"
      }
    },
    {
      "fullUrl": "urn:uuid:bb55c2bc-5ad2-4bc1-8ff3-c407d06b12d0",
      "resource": {
        "resourceType": "Sequence",
        "text": {
          "status": "generated",
          "div": "<div xmlns=\"http://www.w3.org/1999/xhtml\">\n                        <pre>&quot;HLA-C*01:02:01, exon 2&quot;</pre>\n                    </div>"
        },
        "type": "dna",
        "coordinateSystem": 0,
        "patient": {
          "reference": "urn:uuid:13f34265-335c-4853-bc38-0815315edafa",
          "display": "John Storm"
        },
        "specimen": {
          "reference": "urn:uuid:e44fbe33-6084-4ae2-a95e-8bc451c63340",
          "display": "buccal swab from John Storm"
        },
        "referenceSeq": {
          "referenceSeqId": {
            "coding": [
              {
                "system": "http://www.ebi.ac.uk/ipd/imgt/hla/",
                "version": "3.23",
                "code": "HLA00401"
              }
            ],
            "text": "HLA-C*01:02:01"
          },
          "windowStart": 486,
          "windowEnd": 756
        },
        "observedSeq": ""
      },
      "request": {
        "fhir_comments": [
          "    transaction details    "
        ],
        "method": "POST",
        "url": "Sequence"
      }
    },
    {
      "fullUrl": "urn:uuid:46938bb2-0486-4e87-bfd3-89aab2d5e22f",
      "resource": {
        "resourceType": "Sequence",
        "text": {
          "status": "generated",
          "div": "<div xmlns=\"http://www.w3.org/1999/xhtml\">\n                        <pre>&quot;HLA-C*01:02:01, exon 3&quot;</pre>\n                    </div>"
        },
        "type": "dna",
        "coordinateSystem": 0,
        "patient": {
          "reference": "urn:uuid:13f34265-335c-4853-bc38-0815315edafa",
          "display": "John Storm"
        },
        "specimen": {
          "reference": "urn:uuid:e44fbe33-6084-4ae2-a95e-8bc451c63340",
          "display": "buccal swab from John Storm"
        },
        "referenceSeq": {
          "referenceSeqId": {
            "coding": [
              {
                "system": "http://www.ebi.ac.uk/ipd/imgt/hla/",
                "version": "3.23",
                "code": "HLA00401"
              }
            ],
            "text": "HLA-C*01:02:01"
          },
          "windowStart": 1002,
          "windowEnd": 1278
        },
        "observedSeq": ""
      },
      "request": {
        "fhir_comments": [
          "    transaction details    "
        ],
        "method": "POST",
        "url": "Sequence"
      }
    },
    {
      "fullUrl": "urn:uuid:2ae2ff34-279e-43c2-9018-b054fd3fc1ce",
      "resource": {
        "resourceType": "Sequence",
        "text": {
          "status": "generated",
          "div": "<div xmlns=\"http://www.w3.org/1999/xhtml\">\n                        <pre>&quot;HLA-C*03:04:01:01, exon 2&quot;</pre>\n                    </div>"
        },
        "type": "dna",
        "coordinateSystem": 0,
        "patient": {
          "reference": "urn:uuid:13f34265-335c-4853-bc38-0815315edafa",
          "display": "John Storm"
        },
        "specimen": {
          "reference": "urn:uuid:e44fbe33-6084-4ae2-a95e-8bc451c63340",
          "display": "buccal swab from John Storm"
        },
        "referenceSeq": {
          "referenceSeqId": {
            "coding": [
              {
                "system": "http://www.ebi.ac.uk/ipd/imgt/hla/",
                "version": "3.23",
                "code": "HLA00413"
              }
            ],
            "text": "HLA-C*03:04:01:01"
          },
          "windowStart": 486,
          "windowEnd": 756
        },
        "observedSeq": ""
      },
      "request": {
        "fhir_comments": [
          "    transaction details    "
        ],
        "method": "POST",
        "url": "Sequence"
      }
    },
    {
      "fullUrl": "urn:uuid:19153ef1-68c6-47a2-9676-c4eefbd39af9",
      "resource": {
        "resourceType": "Sequence",
        "text": {
          "status": "generated",
          "div": "<div xmlns=\"http://www.w3.org/1999/xhtml\">\n                        <pre>&quot;HLA-C*03:04:01:01, exon 3&quot;</pre>\n                    </div>"
        },
        "type": "dna",
        "coordinateSystem": 0,
        "patient": {
          "reference": "urn:uuid:13f34265-335c-4853-bc38-0815315edafa",
          "display": "John Storm"
        },
        "specimen": {
          "reference": "urn:uuid:e44fbe33-6084-4ae2-a95e-8bc451c63340",
          "display": "buccal swab from John Storm"
        },
        "referenceSeq": {
          "referenceSeqId": {
            "coding": [
              {
                "system": "http://www.ebi.ac.uk/ipd/imgt/hla/",
                "version": "3.23",
                "code": "HLA00413"
              }
            ],
            "text": "HLA-C*03:04:01:01"
          },
          "windowStart": 1001,
          "windowEnd": 1277
        },
        "observedSeq": ""
      },
      "request": {
        "fhir_comments": [
          "    transaction details    "
        ],
        "method": "POST",
        "url": "Sequence"
      }
    },
    {
      "fullUrl": "urn:uuid:b7765bbf-df40-486a-9f2f-404309643de6",
      "resource": {
        "resourceType": "Observation",
        "text": {
          "status": "generated",
          "div": "<div xmlns=\"http://www.w3.org/1999/xhtml\"><pre>HLA-A:01:01:01G</pre></div>"
        },
        "extension": [
          {
            "url": "http://hl7.org/fhir/StructureDefinition/observation-geneticsGene",
            "valueCodeableConcept": {
              "coding": [
                {
                  "system": "http://www.genenames.org",
                  "code": "HGNC:4931",
                  "display": "HLA-A"
                }
              ]
            }
          },
          {
            "url": "http://hl7.org/fhir/StructureDefinition/observation-geneticsAlleleName",
            "valueString": "HLA-A*01:01:01G"
          },
          {
            "url": "http://hl7.org/fhir/StructureDefinition/observation-geneticsGenomicSourceClass",
            "valueCodeableConcept": {
              "coding": [
                {
                  "system": "http://hl7.org/fhir/LOINC-48002-0-answerlist",
                  "code": "LA6683-2",
                  "display": "germline"
                }
              ]
            }
          },
          {
            "url": "http://hl7.org/fhir/StructureDefinition/observation-geneticsPhaseSet",
            "valueUri": "urn:uuid:e13f147e-41e5-4f7a-b20a-1b52b236c5ba"
          }
        ],
        "status": "final",
        "code": {
          "coding": [
            {
              "system": "http://loinc.org",
              "code": "57290-9",
              "display": "HLA-A [Type] by High resolution"
            }
          ]
        },
        "subject": {
          "reference": "urn:uuid:13f34265-335c-4853-bc38-0815315edafa",
          "display": "John Storm"
        },
        "effectiveDateTime": "2016-12-15",
        "specimen": {
          "reference": "urn:uuid:e44fbe33-6084-4ae2-a95e-8bc451c63340",
          "display": "buccal swab from John Storm"
        },
        "related": [
          {
            "type": "derived-from",
            "target": {
              "reference": "urn:uuid:8200dab6-18a2-4550-b913-a7db480c0804",
              "display": "HLA-A*01:01:01:01, exon 2"
            }
          },
          {
            "type": "derived-from",
            "target": {
              "reference": "urn:uuid:7c393185-f15c-45bc-a714-c0fdbea32675",
              "display": "HLA-A*01:01:01:01, exon 3"
            }
          }
        ]
      },
      "request": {
        "fhir_comments": [
          "    transaction details    "
        ],
        "method": "POST",
        "url": "Observation"
      }
    },
    {
      "fullUrl": "urn:uuid:d98d92a7-0e86-4ae5-b036-b7e1bba6ec32",
      "resource": {
        "resourceType": "Observation",
        "text": {
          "status": "generated",
          "div": "<div xmlns=\"http://www.w3.org/1999/xhtml\"><pre>HLA-A*01:02</pre></div>"
        },
        "extension": [
          {
            "url": "http://hl7.org/fhir/StructureDefinition/observation-geneticsGene",
            "valueCodeableConcept": {
              "coding": [
                {
                  "system": "http://www.genenames.org",
                  "code": "HGNC:4931",
                  "display": "HLA-A"
                }
              ]
            }
          },
          {
            "url": "http://hl7.org/fhir/StructureDefinition/observation-geneticsAlleleName",
            "valueString": "HLA-A*01:02"
          },
          {
            "url": "http://hl7.org/fhir/StructureDefinition/observation-geneticsGenomicSourceClass",
            "valueCodeableConcept": {
              "coding": [
                {
                  "system": "http://hl7.org/fhir/LOINC-48002-0-answerlist",
                  "code": "LA6683-2",
                  "display": "germline"
                }
              ]
            }
          },
          {
            "url": "http://hl7.org/fhir/StructureDefinition/observation-geneticsPhaseSet",
            "valueUri": "urn:uuid:af8e79ec-343e-4380-ba65-cec5266dc2d5"
          }
        ],
        "status": "final",
        "code": {
          "coding": [
            {
              "system": "http://loinc.org",
              "code": "57290-9",
              "display": "HLA-A [Type] by High resolution"
            }
          ]
        },
        "subject": {
          "reference": "urn:uuid:13f34265-335c-4853-bc38-0815315edafa",
          "display": "John Storm"
        },
        "effectiveDateTime": "2016-12-15",
        "specimen": {
          "reference": "urn:uuid:e44fbe33-6084-4ae2-a95e-8bc451c63340",
          "display": "buccal swab from John Storm"
        },
        "related": [
          {
            "type": "derived-from",
            "target": {
              "reference": "urn:uuid:65c85f14-c3a0-4b72-818f-820e04fcc621",
              "display": "HLA-A*01:02, exon 2"
            }
          },
          {
            "type": "derived-from",
            "target": {
              "reference": "urn:uuid:fbba9fe7-0ece-4ec1-9233-a437a8d242a0",
              "display": "HLA-A*01:02, exon 3"
            }
          }
        ]
      },
      "request": {
        "fhir_comments": [
          "    transaction details    "
        ],
        "method": "POST",
        "url": "Observation"
      }
    },
    {
      "fullUrl": "urn:uuid:49a86246-4004-42eb-9bdc-f542f93f9228",
      "resource": {
        "resourceType": "Observation",
        "text": {
          "status": "generated",
          "div": "<div xmlns=\"http://www.w3.org/1999/xhtml\"><pre>HLA-A:01:01G+HLA-A*01:02</pre></div>"
        },
        "extension": [
          {
            "url": "http://hl7.org/fhir/StructureDefinition/observation-geneticsGene",
            "valueCodeableConcept": {
              "coding": [
                {
                  "system": "http://www.genenames.org",
                  "code": "HGNC:4931",
                  "display": "HLA-A"
                }
              ]
            }
          },
          {
            "url": "http://hl7.org/fhir/StructureDefinition/observation-geneticsGenomicSourceClass",
            "valueCodeableConcept": {
              "coding": [
                {
                  "system": "http://hl7.org/fhir/LOINC-48002-0-answerlist",
                  "code": "LA6683-2",
                  "display": "germline"
                }
              ]
            }
          }
        ],
        "status": "final",
        "code": {
          "coding": [
            {
              "system": "http://loinc.org",
              "code": "57290-9",
              "display": "HLA-A [Type] by High resolution"
            }
          ]
        },
        "subject": {
          "reference": "urn:uuid:13f34265-335c-4853-bc38-0815315edafa",
          "display": "John Storm"
        },
        "effectiveDateTime": "2016-12-15",
        "specimen": {
          "reference": "urn:uuid:e44fbe33-6084-4ae2-a95e-8bc451c63340",
          "display": "buccal swab from John Storm"
        },
        "related": [
          {
            "type": "derived-from",
            "target": {
              "reference": "urn:uuid:b7765bbf-df40-486a-9f2f-404309643de6",
              "display": "HLA-A*01:01:01G, exons 2 and 3"
            }
          },
          {
            "type": "derived-from",
            "target": {
              "reference": "urn:uuid:d98d92a7-0e86-4ae5-b036-b7e1bba6ec32",
              "display": "HLA-A*01:02, exons 2 and 3"
            }
          }
        ]
      },
      "request": {
        "fhir_comments": [
          "    transaction details    "
        ],
        "method": "POST",
        "url": "Observation"
      }
    },
    {
      "fullUrl": "urn:uuid:e2092243-2970-49d2-a90f-b90d1d49715a",
      "resource": {
        "resourceType": "Observation",
        "text": {
          "status": "generated",
          "div": "<div xmlns=\"http://www.w3.org/1999/xhtml\"><pre>HLA-B*15:01:01G</pre></div>"
        },
        "extension": [
          {
            "url": "http://hl7.org/fhir/StructureDefinition/observation-geneticsGene",
            "valueCodeableConcept": {
              "coding": [
                {
                  "system": "http://www.genenames.org",
                  "code": "HGNC:4932",
                  "display": "HLA-B"
                }
              ]
            }
          },
          {
            "url": "http://hl7.org/fhir/StructureDefinition/observation-geneticsAlleleName",
            "valueString": "HLA-B*15:01:01G"
          },
          {
            "url": "http://hl7.org/fhir/StructureDefinition/observation-geneticsGenomicSourceClass",
            "valueCodeableConcept": {
              "coding": [
                {
                  "system": "http://hl7.org/fhir/LOINC-48002-0-answerlist",
                  "code": "LA6683-2",
                  "display": "germline"
                }
              ]
            }
          },
          {
            "url": "http://hl7.org/fhir/StructureDefinition/observation-geneticsPhaseSet",
            "valueUri": "urn:uuid:29c67a1b-aeaa-4599-ae20-04b947ef73d8"
          }
        ],
        "status": "final",
        "code": {
          "coding": [
            {
              "system": "http://loinc.org",
              "code": "57291-7",
              "display": "HLA-B [Type] by High resolution"
            }
          ]
        },
        "subject": {
          "reference": "urn:uuid:13f34265-335c-4853-bc38-0815315edafa",
          "display": "John Storm"
        },
        "effectiveDateTime": "2016-12-15",
        "specimen": {
          "reference": "urn:uuid:e44fbe33-6084-4ae2-a95e-8bc451c63340",
          "display": "buccal swab from John Storm"
        },
        "related": [
          {
            "type": "derived-from",
            "target": {
              "reference": "urn:uuid:cbabf93e-1b4b-46f2-ba1e-d84862670670",
              "display": "HLA-B*15:01:01:01, exon 2"
            }
          },
          {
            "type": "derived-from",
            "target": {
              "reference": "urn:uuid:c233ad3d-1572-48d6-93da-0a583535e138",
              "display": "HLA-B*15:01:01:01, exon 3"
            }
          }
        ]
      },
      "request": {
        "fhir_comments": [
          "    transaction details    "
        ],
        "method": "POST",
        "url": "Observation"
      }
    },
    {
      "fullUrl": "urn:uuid:792be53e-d4fb-4887-a367-815ef6c706e5",
      "resource": {
        "resourceType": "Observation",
        "text": {
          "status": "generated",
          "div": "<div xmlns=\"http://www.w3.org/1999/xhtml\"><pre>HLA-B*57:01:01G</pre></div>"
        },
        "extension": [
          {
            "url": "http://hl7.org/fhir/StructureDefinition/observation-geneticsGene",
            "valueCodeableConcept": {
              "coding": [
                {
                  "system": "http://www.genenames.org",
                  "code": "HGNC:4932",
                  "display": "HLA-B"
                }
              ]
            }
          },
          {
            "url": "http://hl7.org/fhir/StructureDefinition/observation-geneticsAlleleName",
            "valueString": "HLA-B*57:01:01G"
          },
          {
            "url": "http://hl7.org/fhir/StructureDefinition/observation-geneticsGenomicSourceClass",
            "valueCodeableConcept": {
              "coding": [
                {
                  "system": "http://hl7.org/fhir/LOINC-48002-0-answerlist",
                  "code": "LA6683-2",
                  "display": "germline"
                }
              ]
            }
          },
          {
            "url": "http://hl7.org/fhir/StructureDefinition/observation-geneticsPhaseSet",
            "valueUri": "urn:uuid:a19a3557-b36c-4b35-ab8b-4783022066b9"
          }
        ],
        "status": "final",
        "code": {
          "coding": [
            {
              "system": "http://loinc.org",
              "code": "57291-7",
              "display": "HLA-B [Type] by High resolution"
            }
          ]
        },
        "subject": {
          "reference": "urn:uuid:13f34265-335c-4853-bc38-0815315edafa",
          "display": "John Storm"
        },
        "effectiveDateTime": "2016-12-15",
        "specimen": {
          "reference": "urn:uuid:e44fbe33-6084-4ae2-a95e-8bc451c63340",
          "display": "buccal swab from John Storm"
        },
        "related": [
          {
            "type": "derived-from",
            "target": {
              "reference": "urn:uuid:05fa52d7-5c67-460a-8722-d3460b24d6fe",
              "display": "HLA-B*57:01:01, exon 2"
            }
          },
          {
            "type": "derived-from",
            "target": {
              "reference": "urn:uuid:db69e549-6267-4777-b4b9-8813f3329309",
              "display": "HLA-B*57:01:01, exon 3"
            }
          }
        ]
      },
      "request": {
        "fhir_comments": [
          "    transaction details    "
        ],
        "method": "POST",
        "url": "Observation"
      }
    },
    {
      "fullUrl": "urn:uuid:60613a43-c4cb-4502-b3e2-cf9215feaa70",
      "resource": {
        "resourceType": "Observation",
        "text": {
          "status": "generated",
          "div": "<div xmlns=\"http://www.w3.org/1999/xhtml\"><pre>HLA-B*15:01:01G+HLA-B*57:01:01G</pre></div>"
        },
        "extension": [
          {
            "url": "http://hl7.org/fhir/StructureDefinition/observation-geneticsGene",
            "valueCodeableConcept": {
              "coding": [
                {
                  "system": "http://www.genenames.org",
                  "code": "HGNC:4932",
                  "display": "HLA-B"
                }
              ]
            }
          },
          {
            "url": "http://hl7.org/fhir/StructureDefinition/observation-geneticsGenomicSourceClass",
            "valueCodeableConcept": {
              "coding": [
                {
                  "system": "http://hl7.org/fhir/LOINC-48002-0-answerlist",
                  "code": "LA6683-2",
                  "display": "germline"
                }
              ]
            }
          }
        ],
        "status": "final",
        "code": {
          "coding": [
            {
              "system": "http://loinc.org",
              "code": "57291-7",
              "display": "HLA-B [Type] by High resolution"
            }
          ]
        },
        "subject": {
          "reference": "urn:uuid:13f34265-335c-4853-bc38-0815315edafa",
          "display": "John Storm"
        },
        "effectiveDateTime": "2016-12-15",
        "specimen": {
          "reference": "urn:uuid:e44fbe33-6084-4ae2-a95e-8bc451c63340",
          "display": "buccal swab from John Storm"
        },
        "related": [
          {
            "type": "derived-from",
            "target": {
              "reference": "urn:uuid:e2092243-2970-49d2-a90f-b90d1d49715a",
              "display": "HLA-B*15:01:01G, exons 2 and 3"
            }
          },
          {
            "type": "derived-from",
            "target": {
              "reference": "urn:uuid:792be53e-d4fb-4887-a367-815ef6c706e5",
              "display": "HLA-B*57:01:01G, exons 2 and 3"
            }
          }
        ]
      },
      "request": {
        "fhir_comments": [
          "    transaction details    "
        ],
        "method": "POST",
        "url": "Observation"
      }
    },
    {
      "fullUrl": "urn:uuid:709c5315-9403-4867-9d82-0b953836665f",
      "resource": {
        "resourceType": "Observation",
        "text": {
          "status": "generated",
          "div": "<div xmlns=\"http://www.w3.org/1999/xhtml\"><pre>HLA-C*01:02:01</pre></div>"
        },
        "extension": [
          {
            "url": "http://hl7.org/fhir/StructureDefinition/observation-geneticsGene",
            "valueCodeableConcept": {
              "coding": [
                {
                  "system": "http://www.genenames.org",
                  "code": "HGNC:4933",
                  "display": "HLA-C"
                }
              ]
            }
          },
          {
            "url": "http://hl7.org/fhir/StructureDefinition/observation-geneticsAlleleName",
            "valueString": "HLA-C*01:02:01"
          },
          {
            "url": "http://hl7.org/fhir/StructureDefinition/observation-geneticsGenomicSourceClass",
            "valueCodeableConcept": {
              "coding": [
                {
                  "system": "http://hl7.org/fhir/LOINC-48002-0-answerlist",
                  "code": "LA6683-2",
                  "display": "germline"
                }
              ]
            }
          },
          {
            "url": "http://hl7.org/fhir/StructureDefinition/observation-geneticsPhaseSet",
            "valueUri": "urn:uuid:79383455-4f55-4126-bcc2-03385cad7944"
          }
        ],
        "status": "final",
        "code": {
          "coding": [
            {
              "system": "http://loinc.org",
              "code": "77636-9",
              "display": "HLA-C [Type] by High resolution"
            }
          ]
        },
        "subject": {
          "reference": "urn:uuid:13f34265-335c-4853-bc38-0815315edafa",
          "display": "John Storm"
        },
        "effectiveDateTime": "2016-12-15",
        "specimen": {
          "reference": "urn:uuid:e44fbe33-6084-4ae2-a95e-8bc451c63340",
          "display": "buccal swab from John Storm"
        },
        "related": [
          {
            "type": "derived-from",
            "target": {
              "reference": "urn:uuid:bb55c2bc-5ad2-4bc1-8ff3-c407d06b12d0",
              "display": "HLA-C*01:02:01, exon 2"
            }
          },
          {
            "type": "derived-from",
            "target": {
              "reference": "urn:uuid:46938bb2-0486-4e87-bfd3-89aab2d5e22f",
              "display": "HLA-C*01:02:01, exon 3"
            }
          }
        ]
      },
      "request": {
        "fhir_comments": [
          "    transaction details    "
        ],
        "method": "POST",
        "url": "Observation"
      }
    },
    {
      "fullUrl": "urn:uuid:8b2aa21c-1426-4717-8ab0-a84d83df7d47",
      "resource": {
        "resourceType": "Observation",
        "text": {
          "status": "generated",
          "div": "<div xmlns=\"http://www.w3.org/1999/xhtml\"><pre>HLA-C*03:04:01:01</pre></div>"
        },
        "extension": [
          {
            "url": "http://hl7.org/fhir/StructureDefinition/observation-geneticsGene",
            "valueCodeableConcept": {
              "coding": [
                {
                  "system": "http://www.genenames.org",
                  "code": "HGNC:4933",
                  "display": "HLA-C"
                }
              ]
            }
          },
          {
            "url": "http://hl7.org/fhir/StructureDefinition/observation-geneticsAlleleName",
            "valueString": "HLA-C*03:04:01:01"
          },
          {
            "url": "http://hl7.org/fhir/StructureDefinition/observation-geneticsGenomicSourceClass",
            "valueCodeableConcept": {
              "coding": [
                {
                  "system": "http://hl7.org/fhir/LOINC-48002-0-answerlist",
                  "code": "LA6683-2",
                  "display": "germline"
                }
              ]
            }
          },
          {
            "url": "http://hl7.org/fhir/StructureDefinition/observation-geneticsPhaseSet",
            "valueUri": "urn:uuid:a220b7a5-2d7a-4cec-a5b1-bfcf5890e391"
          }
        ],
        "status": "final",
        "code": {
          "coding": [
            {
              "system": "http://loinc.org",
              "code": "77636-9",
              "display": "HLA-C [Type] by High resolution"
            }
          ]
        },
        "subject": {
          "reference": "urn:uuid:13f34265-335c-4853-bc38-0815315edafa",
          "display": "John Storm"
        },
        "effectiveDateTime": "2016-12-15",
        "specimen": {
          "reference": "urn:uuid:e44fbe33-6084-4ae2-a95e-8bc451c63340",
          "display": "buccal swab from John Storm"
        },
        "related": [
          {
            "type": "derived-from",
            "target": {
              "reference": "urn:uuid:2ae2ff34-279e-43c2-9018-b054fd3fc1ce",
              "display": "HLA-C*03:04:01:01, exon 2"
            }
          },
          {
            "type": "derived-from",
            "target": {
              "reference": "urn:uuid:19153ef1-68c6-47a2-9676-c4eefbd39af9",
              "display": "HLA-C*03:04:01:01, exon 3"
            }
          }
        ]
      },
      "request": {
        "fhir_comments": [
          "    transaction details    "
        ],
        "method": "POST",
        "url": "Observation"
      }
    },
    {
      "fullUrl": "urn:uuid:0e0a780e-4486-4cd0-bfae-7243c579f208",
      "resource": {
        "resourceType": "Observation",
        "text": {
          "status": "generated",
          "div": "<div xmlns=\"http://www.w3.org/1999/xhtml\"><pre>HLA-C*01:02:01G+HLA-C*03:04:01G</pre></div>"
        },
        "extension": [
          {
            "url": "http://hl7.org/fhir/StructureDefinition/observation-geneticsGene",
            "valueCodeableConcept": {
              "coding": [
                {
                  "system": "http://www.genenames.org",
                  "code": "HGNC:4933",
                  "display": "HLA-C"
                }
              ]
            }
          },
          {
            "url": "http://hl7.org/fhir/StructureDefinition/observation-geneticsGenomicSourceClass",
            "valueCodeableConcept": {
              "coding": [
                {
                  "system": "http://hl7.org/fhir/LOINC-48002-0-answerlist",
                  "code": "LA6683-2",
                  "display": "germline"
                }
              ]
            }
          }
        ],
        "status": "final",
        "code": {
          "coding": [
            {
              "system": "http://loinc.org",
              "code": "77636-9",
              "display": "HLA-C [Type] by High resolution"
            }
          ]
        },
        "subject": {
          "reference": "urn:uuid:13f34265-335c-4853-bc38-0815315edafa",
          "display": "John Storm"
        },
        "effectiveDateTime": "2016-12-15",
        "specimen": {
          "reference": "urn:uuid:e44fbe33-6084-4ae2-a95e-8bc451c63340",
          "display": "buccal swab from John Storm"
        },
        "related": [
          {
            "type": "derived-from",
            "target": {
              "reference": "urn:uuid:709c5315-9403-4867-9d82-0b953836665f",
              "display": "HLA-C*01:02:01G, exons 2 and 3"
            }
          },
          {
            "type": "derived-from",
            "target": {
              "reference": "urn:uuid:8b2aa21c-1426-4717-8ab0-a84d83df7d47",
              "display": "HLA-C*03:04:01G, exons 2 and 3"
            }
          }
        ]
      },
      "request": {
        "fhir_comments": [
          "    transaction details    "
        ],
        "method": "POST",
        "url": "Observation"
      }
    },
    {
      "fullUrl": "urn:uuid:b0a4b18e-94e7-4b1b-8031-c7ae4bdd8db9",
      "resource": {
        "resourceType": "DiagnosticReport",
        "text": {
          "status": "generated",
          "div": "<div xmlns=\"http://www.w3.org/1999/xhtml\"><pre>\nHLA-A,-B,-C genotyping report for John Storm (MRN:12345)\n\nLOCUS   ALLELE 1            ALLELE 2\nHLA-A   HLA-A:01:01G        HLA-A*01:02\nHLA-B   HLA-B*15:01:01G     HLA-B*57:01:01G\nHLA-C   HLA-C*01:02:01G     HLA-C*03:04:01G\n\nAllele assignments based on IMGT/HLA 3.23\nEffective date: 2015-12-15\nMethod: Sequencing of exons 2 and 3 of HLA Class I genes\nLab: aTypingLab Inc\n                    </pre></div>"
        },
        "extension": [
          {
            "url": "http://hl7.org/fhir/StructureDefinition/hla-genotyping-resultsAlleleDatabase",
            "valueCodeableConcept": {
              "coding": [
                {
                  "system": "http://www.ebi.ac.uk/ipd/imgt/hla/",
                  "version": "3.23"
                }
              ]
            }
          },
          {
            "url": "http://hl7.org/fhir/StructureDefinition/hla-genotyping-resultsGlstring",
            "extension": [
              {
                "url": "text",
                "valueString": "HLA-A*01:01:01G+HLA-A*01:02^HLA-B*15:01:01G+HLA-B*57:01:01G^HLA-C*01:02:01G+HLA-C*03:04:01G"
              },
              {
                "url": "uri",
                "valueUri": "https://gl.nmdp.org/imgt-hla/3.23.0/multilocus-unphased-genotype/ex"
              }
            ]
          },
          {
            "url": "http://hl7.org/fhir/StructureDefinition/hla-genotyping-results-method",
            "valueCodeableConcept": {
              "coding": [
                {
                  "system": "http://www.ncbi.nlm.nih.gov/gtr/",
                  "code": "GTR000000000.0"
                }
              ],
              "text": "NGS based Class I HLA-A, -B, -C genotyping"
            }
          }
        ],
        "basedOn": [
          {
            "reference": "urn:uuid:99309303-045e-4cf4-90d7-250d7a7476ea",
            "display": "Class I HLA genotyping for John Storm"
          }
        ],
        "status": "final",
        "category": {
          "coding": [
            {
              "system": "http://hl7.org/fhir/ValueSet/diagnostic-service-sections",
              "code": "GE",
              "display": "Genetics"
            }
          ]
        },
        "code": {
          "coding": [
            {
              "system": "http://loinc.org",
              "code": "13303-3",
              "display": "HLA-A+​B+​C (class I) [Type]"
            }
          ]
        },
        "subject": {
          "reference": "urn:uuid:13f34265-335c-4853-bc38-0815315edafa",
          "display": "John Storm"
        },
        "effectiveDateTime": "2016-12-15",
        "issued": "2016-12-15T14:15:30-06:00",
        "specimen": [
          {
            "reference": "urn:uuid:e44fbe33-6084-4ae2-a95e-8bc451c63340",
            "display": "buccal swab from John Storm"
          }
        ],
        "result": [
          {
            "reference": "urn:uuid:49a86246-4004-42eb-9bdc-f542f93f9228",
            "display": "HLA-A: HLA-A:01:01:01G+HLA-A*01:02"
          },
          {
            "reference": "urn:uuid:60613a43-c4cb-4502-b3e2-cf9215feaa70",
            "display": "HLA-B: HLA-B*15:01:01G+HLA-B*57:01:01G"
          },
          {
            "reference": "urn:uuid:0e0a780e-4486-4cd0-bfae-7243c579f208",
            "display": "HLA-C: HLA-C*01:02:01G+HLA-C*03:04:01G"
          }
        ]
      },
      "request": {
        "fhir_comments": [
          "    transaction details    "
        ],
        "method": "POST",
        "url": "DiagnosticReport"
      }
    }
  ]
}
