<!--
Bob Milius - NMDP - 2017-03-25

Assume these are already created ahead of time before the HLA report bundle is created.
You would use the resources created here for those in the report bundle.
Transaction bundle that creates and links:
+ Patient (potential donor, John Storm)
+ Specimen from that Patient, which was collected as a buccal swab
+ Organization of Typing Lab (aTypingLab, Inc)
+ Organization of donor registry (aDonorRegistry)
+ ProcedureRequest for HLA-A,-B,-C typing of patient(donor)

The second part of this bundle contains the resources that would be contained
in a separate transaction bundle to be sent as the HLA typing report.
and include the following:
+ DiagnosticReport summarizing genotyping for HLA-A,-B,-C typing of patient(donor)
+ Obervations for each genotype
+ Observations for each allele
+ Sequences for exons 2 and 3 for HLA-A,-B,-C
-->

<Bundle xmlns="http://hl7.org/fhir">
    <type value="collection"/>
<!--    now, each entry is an action to take in the transaction    -->

    <entry>
        <fullUrl value="urn:uuid:13f34265-335c-4853-bc38-0815315edafa"/>
        <resource>
          <Patient>
             <text>
                <status value="generated"/>
                <div xmlns="http://www.w3.org/1999/xhtml">
                    <h4>Donor </h4>
                    <p>name: John Storm</p>
                    <p>gender: male</p>
                    <p>born: 1986-12-31</p>
                </div>
            </text>
            <identifier>
                <use value="usual"/>
                <type>
                    <coding>
                        <system value="http://hl7.org/fhir/v2/0203"/>
                        <code value="DR"/>
                    </coding>
                </type>
                <system value="urn:oid:0.0.0.0.0.0.0"/>
                <value value="12345"/>
                <period>
                  <start value="2012-11-10"/>
                </period>
                <assigner>
                  <display value="aDonorRegistry"/>
                </assigner>
            </identifier>
            <name>
                <use value="official"/>
                <text value="John Storm"/>
                <family value="Storm"/>
                <given value="John"/>
            </name>
            <name>
                <use value="nickname"/>
                <text value="Johnny Storm"/>
                <family value="Storm"/>
                <given value="Johnny"/>
            </name>
            <name>
                <use value="nickname"/>
                <text value="The Human Torch"/>
            </name>
            <gender value="male"/>
            <birthDate value="1986-12-31"/>
          </Patient>
        </resource>
        <!--    now, details about the action to take with the resource    -->
        <request>
          <method value="POST"/>
          <url value="Patient"/>
        </request>
    </entry>

    <entry>
        <fullUrl value="urn:uuid:e44fbe33-6084-4ae2-a95e-8bc451c63340"/>
        <resource>
            <Specimen xmlns="http://hl7.org/fhir">
                <text>
                    <status value="generated"/>
                    <div xmlns="http://www.w3.org/1999/xhtml"><pre>a buccal swab</pre></div>
                </text>

                <identifier>
                    <system value="http://myorgsurl.com"/>
                    <value value="123"/>
                </identifier>

                <accessionIdentifier>
                    <system value="http://mylabsurl.com"/>
                    <value value="456"/>
                </accessionIdentifier>

                <type>
                    <coding>
                    <system value="http://snomed.info/sct"/>
                    <code value="258564008"/>
                        <display value="Buccal smear sample"/>
                    </coding>
                </type>

                <subject>
                    <reference value="urn:uuid:13f34265-335c-4853-bc38-0815315edafa"/>
                    <display value="John Storm"/>
                </subject>

                <collection>
                    <collectedDateTime value="2016-11-10"/>
                    <method>
                        <coding>
                            <system value="http://hl7.org/fhir/v2/0488"/>
                            <code value="SWA"/>
                        </coding>
                    </method>
                     <bodySite>
                         <coding>
                            <system value="http://snomed.info/sct"/>
                            <code value="261063000"/>
                            <display value="Buccal space"/>
                         </coding>
                         <text value="Buccal space"/>
                      </bodySite>
                </collection>

            </Specimen>
        </resource>
          <!--    now, details about the action to take with the resource    -->
        <request>
          <method value="POST"/>
          <url value="Specimen"/>
        </request>
    </entry>

    <entry>
        <fullUrl value="urn:uuid:9243cc20-27bd-4f87-ba90-0328ed474950"/>
        <resource>
            <Organization>
                <text>
                    <status value="generated"/>
                    <div xmlns="http://www.w3.org/1999/xhtml"><pre>aTypingLab, Inc</pre></div>
                </text>
                <name value="aTypingLab Inc"/>
                <alias value="aTL"/>
                <address xmlns="http://hl7.org/fhir">
                    <use value="work"/>
                    <type value="both"/>
                    <text value="123 Main St, Sometown, ND 99999"/>
                    <line value="123 Main St"/>
                    <city value="Sometown"/>
                    <state value="ND"/>
                    <postalCode value="99999"/>
                    <country value="USA"/>
                </address>
                <telecom xmlns="http://hl7.org/fhir">
                     <system value="phone"/>
                     <value value="1-800-555-1234"/>
                     <use value="work"/>
                     <rank value="1"/>
                </telecom>
            </Organization>
        </resource>
    <!--    transaction details    -->
        <request>
            <method value="POST"/>
            <url value="Organization"/>
        </request>
    </entry>

    <entry>
        <fullUrl value="urn:uuid:00ef18ad-ed04-4b2c-81ee-b69bb243f0d5"/>
        <resource>
            <Organization>
                <text>
                    <status value="generated"/>
                    <div xmlns="http://www.w3.org/1999/xhtml"><pre>aDonorRegistry</pre></div>
                </text>
                <name value="aDonorRegistry"/>
                <alias value="ADR"/>
                <address xmlns="http://hl7.org/fhir">
                    <use value="work"/>
                    <type value="both"/>
                    <text value="456 Main St, Anytown ND, 00000"/>
                    <line value="456 Main St"/>
                    <city value="Anytown"/>
                    <state value="ND"/>
                    <postalCode value="00000"/>
                    <country value="USA"/>
                </address>
                <telecom xmlns="http://hl7.org/fhir">
                     <system value="phone"/>
                     <value value="1-800-555-6789"/>
                     <use value="work"/>
                     <rank value="1"/>
                </telecom>
            </Organization>
        </resource>
    <!--    transaction details    -->
        <request>
            <method value="POST"/>
            <url value="Organization"/>
        </request>
    </entry>

    <entry>
        <fullUrl value="urn:uuid:99309303-045e-4cf4-90d7-250d7a7476ea"/>
        <resource>
            <ProcedureRequest>
                <text>
                    <status value="generated"/>
                    <div xmlns="http://www.w3.org/1999/xhtml"><pre>HLA typing request for John Storm</pre></div>
                </text>
                <subject>
                    <reference value="urn:uuid:13f34265-335c-4853-bc38-0815315edafa"/>
                    <display value="John Storm"/>
                </subject>
                <requester>
                    <agent>
                        <reference value="urn:uuid:00ef18ad-ed04-4b2c-81ee-b69bb243f0d5"/>
                        <display value="aDonorRegistry"/>
                    </agent>
                </requester>
                <performer>
                    <reference value="urn:uuid:9243cc20-27bd-4f87-ba90-0328ed474950"/>
                    <display value="aTypingLab, Inc"/>
                </performer>
                <authoredOn value="2016-11-15"/>
                <status value="completed"/>
                <intent value="order"/>
                <code>
                    <coding>
                        <system value="http://loinc.org"/>
                        <code value="13303-3"/>
                        <display value="HLA-A+​B+​C (class I) [Type]"/>
                    </coding>
                </code>
                <reasonCode>
                    <text value="tissue typing for donor registry"/>
                </reasonCode>
            </ProcedureRequest>
        </resource>
    <!--    transaction details    -->
        <request>
            <method value="POST"/>
            <url value="DiagnosticOrder"/>
        </request>
    </entry>

<!-- the following is the actual report -->
    <entry>
        <fullUrl value="urn:uuid:8200dab6-18a2-4550-b913-a7db480c0804"/>
        <resource>
            <Sequence>
                <text>
                    <status value="generated"/>
                    <div xmlns="http://www.w3.org/1999/xhtml">
                        <pre>"HLA-A*01:01:01:01, exon 2"</pre>
                    </div>
                </text>
                <type value="dna"/>
                <coordinateSystem value="0"/>
                <patient>
                    <reference value="urn:uuid:13f34265-335c-4853-bc38-0815315edafa"/>
                    <display value = "John Storm"/>
                </patient>
                <specimen>
                    <reference value="urn:uuid:e44fbe33-6084-4ae2-a95e-8bc451c63340"/>
                    <display value="buccal swab from John Storm"/>
                </specimen>
                <referenceSeq>
                    <referenceSeqId>
                        <coding>
                            <system value="http://www.ebi.ac.uk/ipd/imgt/hla/"/>
                            <version value="3.23"/>
                            <code value="HLA00001"/>
                        </coding>
                        <text value="HLA-A*01:01:01:01"/>
                    </referenceSeqId>
                    <windowStart value="503"/>
                    <windowEnd value="773"/>
                </referenceSeq>
                <observedSeq value=""/>
            </Sequence>
        </resource>
    <!--    transaction details    -->
        <request>
            <method value="POST"/>
            <url value="Sequence"/>
        </request>
    </entry>
    <entry>
        <fullUrl value="urn:uuid:7c393185-f15c-45bc-a714-c0fdbea32675"/>
        <resource>
            <Sequence>
                <text>
                    <status value="generated"/>
                    <div xmlns="http://www.w3.org/1999/xhtml">
                        <pre>"HLA-A*01:01:01:01, exon 3"</pre>
                    </div>
                </text>
                <type value="dna"/>
                <coordinateSystem value="0"/>
                <patient>
                    <reference value="urn:uuid:13f34265-335c-4853-bc38-0815315edafa"/>
                    <display value = "John Storm"/>
                </patient>
                <specimen>
                    <reference value="urn:uuid:e44fbe33-6084-4ae2-a95e-8bc451c63340"/>
                    <display value="buccal swab from John Storm"/>
                </specimen>
                <referenceSeq>
                    <referenceSeqId>
                        <coding>
                            <system value="http://www.ebi.ac.uk/ipd/imgt/hla/"/>
                            <version value="3.23"/>
                            <code value="HLA00001"/>
                        </coding>
                        <text value="HLA-A*01:01:01:01"/>
                    </referenceSeqId>
                    <windowStart value="1014"/>
                    <windowEnd value="1290"/>
                </referenceSeq>
                <observedSeq value=""/>
            </Sequence>
        </resource>
    <!--    transaction details    -->
        <request>
            <method value="POST"/>
            <url value="Sequence"/>
        </request>
    </entry>
    <entry>
        <fullUrl value="urn:uuid:65c85f14-c3a0-4b72-818f-820e04fcc621"/>
        <resource>
            <Sequence>
                <text>
                    <status value="generated"/>
                    <div xmlns="http://www.w3.org/1999/xhtml">
                        <pre>"HLA-A*01:02, exon 2"</pre>
                    </div>
                </text>
                <type value="dna"/>
                <coordinateSystem value="0"/>
                <patient>
                    <reference value="urn:uuid:13f34265-335c-4853-bc38-0815315edafa"/>
                    <display value = "John Storm"/>
                </patient>
                <specimen>
                    <reference value="urn:uuid:e44fbe33-6084-4ae2-a95e-8bc451c63340"/>
                    <display value="buccal swab from John Storm"/>
                </specimen>
                <referenceSeq>
                    <referenceSeqId>
                        <coding>
                            <system value="http://www.ebi.ac.uk/ipd/imgt/hla/"/>
                            <version value="3.23"/>
                            <code value="HLA00002"/>
                        </coding>
                        <text value="HLA-A*01:02"/>
                    </referenceSeqId>
                    <windowStart value="503"/>
                    <windowEnd value="773"/>
                </referenceSeq>
                <observedSeq value=""/>
            </Sequence>
        </resource>
    <!--    transaction details    -->
        <request>
            <method value="POST"/>
            <url value="Sequence"/>
        </request>
    </entry>
    <entry>
        <fullUrl value="urn:uuid:fbba9fe7-0ece-4ec1-9233-a437a8d242a0"/>
        <resource>
            <Sequence>
                <text>
                    <status value="generated"/>
                    <div xmlns="http://www.w3.org/1999/xhtml">
                        <pre>"HLA-A*01:02, exon 3"</pre>
                    </div>
                </text>
                <type value="dna"/>
                <coordinateSystem value="0"/>
                <patient>
                    <reference value="urn:uuid:13f34265-335c-4853-bc38-0815315edafa"/>
                    <display value = "John Storm"/>
                </patient>
                <specimen>
                    <reference value="urn:uuid:e44fbe33-6084-4ae2-a95e-8bc451c63340"/>
                    <display value="buccal swab from John Storm"/>
                </specimen>
                <referenceSeq>
                    <referenceSeqId>
                        <coding>
                            <system value="http://www.ebi.ac.uk/ipd/imgt/hla/"/>
                            <version value="3.23"/>
                            <code value="HLA00002"/>
                        </coding>
                        <text value="HLA-A*01:02"/>
                    </referenceSeqId>
                    <windowStart value="1014"/>
                    <windowEnd value="1290"/>
                </referenceSeq>
                <observedSeq value=""/>
            </Sequence>
        </resource>
    <!--    transaction details    -->
        <request>
            <method value="POST"/>
            <url value="Sequence"/>
        </request>
    </entry>
    <entry>
        <fullUrl value="urn:uuid:cbabf93e-1b4b-46f2-ba1e-d84862670670"/>
        <resource>
            <Sequence>
                <text>
                    <status value="generated"/>
                    <div xmlns="http://www.w3.org/1999/xhtml">
                        <pre>"HLA-B*15:01:01:01, exon 2"</pre>
                    </div>
                </text>
                <type value="dna"/>
                <coordinateSystem value="0"/>
                <patient>
                    <reference value="urn:uuid:13f34265-335c-4853-bc38-0815315edafa"/>
                    <display value = "John Storm"/>
                </patient>
                <specimen>
                    <reference value="urn:uuid:e44fbe33-6084-4ae2-a95e-8bc451c63340"/>
                    <display value="buccal swab from John Storm"/>
                </specimen>
                <referenceSeq>
                    <referenceSeqId>
                        <coding>
                            <system value="http://www.ebi.ac.uk/ipd/imgt/hla/"/>
                            <version value="3.23"/>
                            <code value="HLA00162"/>
                        </coding>
                        <text value="HLA-B*15:01:01:01"/>
                    </referenceSeqId>
                    <windowStart value="486"/>
                    <windowEnd value="756"/>
                </referenceSeq>
                <observedSeq value=""/>
            </Sequence>
        </resource>
    <!--    transaction details    -->
        <request>
            <method value="POST"/>
            <url value="Sequence"/>
        </request>
    </entry>
    <entry>
        <fullUrl value="urn:uuid:c233ad3d-1572-48d6-93da-0a583535e138"/>
        <resource>
            <Sequence>
                <text>
                    <status value="generated"/>
                    <div xmlns="http://www.w3.org/1999/xhtml">
                        <pre>"HLA-B*15:01:01:01, exon 3"</pre>
                    </div>
                </text>
                <type value="dna"/>
                <coordinateSystem value="0"/>
                <patient>
                    <reference value="urn:uuid:13f34265-335c-4853-bc38-0815315edafa"/>
                    <display value = "John Storm"/>
                </patient>
                <specimen>
                    <reference value="urn:uuid:e44fbe33-6084-4ae2-a95e-8bc451c63340"/>
                    <display value="buccal swab from John Storm"/>
                </specimen>
                <referenceSeq>
                    <referenceSeqId>
                        <coding>
                            <system value="http://www.ebi.ac.uk/ipd/imgt/hla/"/>
                            <version value="3.23"/>
                            <code value="HLA00162"/>
                        </coding>
                        <text value="HLA-B*15:01:01:01"/>
                    </referenceSeqId>
                    <windowStart value="1001"/>
                    <windowEnd value="1277"/>
                </referenceSeq>
                <observedSeq value=""/>
            </Sequence>
        </resource>
    <!--    transaction details    -->
        <request>
            <method value="POST"/>
            <url value="Sequence"/>
        </request>
    </entry>
    <entry>
        <fullUrl value="urn:uuid:05fa52d7-5c67-460a-8722-d3460b24d6fe"/>
        <resource>
            <Sequence>
                <text>
                    <status value="generated"/>
                    <div xmlns="http://www.w3.org/1999/xhtml">
                        <pre>"HLA-B*57:01:01, exon 2"</pre>
                    </div>
                </text>
                <type value="dna"/>
                <coordinateSystem value="0"/>
                <patient>
                    <reference value="urn:uuid:13f34265-335c-4853-bc38-0815315edafa"/>
                    <display value = "John Storm"/>
                </patient>
                <specimen>
                    <reference value="urn:uuid:e44fbe33-6084-4ae2-a95e-8bc451c63340"/>
                    <display value="buccal swab from John Storm"/>
                </specimen>
                <referenceSeq>
                    <referenceSeqId>
                        <coding>
                            <system value="http://www.ebi.ac.uk/ipd/imgt/hla/"/>
                            <version value="3.23"/>
                            <code value="HLA00381"/>
                        </coding>
                        <text value="HLA-B*57:01:01"/>
                    </referenceSeqId>
                    <windowStart value="485"/>
                    <windowEnd value="755"/>
                </referenceSeq>
                <observedSeq value=""/>
            </Sequence>
        </resource>
    <!--    transaction details    -->
        <request>
            <method value="POST"/>
            <url value="Sequence"/>
        </request>
    </entry>
    <entry>
        <fullUrl value="urn:uuid:db69e549-6267-4777-b4b9-8813f3329309"/>
        <resource>
            <Sequence>
                <text>
                    <status value="generated"/>
                    <div xmlns="http://www.w3.org/1999/xhtml">
                        <pre>"HLA-B*57:01:01, exon 3"</pre>
                    </div>
                </text>
                <type value="dna"/>
                <coordinateSystem value="0"/>
                <patient>
                    <reference value="urn:uuid:13f34265-335c-4853-bc38-0815315edafa"/>
                    <display value = "John Storm"/>
                </patient>
                <specimen>
                    <reference value="urn:uuid:e44fbe33-6084-4ae2-a95e-8bc451c63340"/>
                    <display value="buccal swab from John Storm"/>
                </specimen>
                <referenceSeq>
                    <referenceSeqId>
                        <coding>
                            <system value="http://www.ebi.ac.uk/ipd/imgt/hla/"/>
                            <version value="3.23"/>
                            <code value="HLA00381"/>
                        </coding>
                        <text value="HLA-B*57:01:01"/>
                    </referenceSeqId>
                    <windowStart value="1001"/>
                    <windowEnd value="1277"/>
                </referenceSeq>
                <observedSeq value=""/>
            </Sequence>
        </resource>
    <!--    transaction details    -->
        <request>
            <method value="POST"/>
            <url value="Sequence"/>
        </request>
    </entry>
    <entry>
        <fullUrl value="urn:uuid:bb55c2bc-5ad2-4bc1-8ff3-c407d06b12d0"/>
        <resource>
            <Sequence>
                <text>
                    <status value="generated"/>
                    <div xmlns="http://www.w3.org/1999/xhtml">
                        <pre>"HLA-C*01:02:01, exon 2"</pre>
                    </div>
                </text>
                <type value="dna"/>
                <coordinateSystem value="0"/>
                <patient>
                    <reference value="urn:uuid:13f34265-335c-4853-bc38-0815315edafa"/>
                    <display value = "John Storm"/>
                </patient>
                <specimen>
                    <reference value="urn:uuid:e44fbe33-6084-4ae2-a95e-8bc451c63340"/>
                    <display value="buccal swab from John Storm"/>
                </specimen>
                <referenceSeq>
                    <referenceSeqId>
                        <coding>
                            <system value="http://www.ebi.ac.uk/ipd/imgt/hla/"/>
                            <version value="3.23"/>
                            <code value="HLA00401"/>
                        </coding>
                        <text value="HLA-C*01:02:01"/>
                    </referenceSeqId>
                    <windowStart value="486"/>
                    <windowEnd value="756"/>
                </referenceSeq>
                <observedSeq value=""/>
            </Sequence>
        </resource>
    <!--    transaction details    -->
        <request>
            <method value="POST"/>
            <url value="Sequence"/>
        </request>
    </entry>
    <entry>
        <fullUrl value="urn:uuid:46938bb2-0486-4e87-bfd3-89aab2d5e22f"/>
        <resource>
            <Sequence>
                <text>
                    <status value="generated"/>
                    <div xmlns="http://www.w3.org/1999/xhtml">
                        <pre>"HLA-C*01:02:01, exon 3"</pre>
                    </div>
                </text>
                <type value="dna"/>
                <coordinateSystem value="0"/>
                <patient>
                    <reference value="urn:uuid:13f34265-335c-4853-bc38-0815315edafa"/>
                    <display value = "John Storm"/>
                </patient>
                <specimen>
                    <reference value="urn:uuid:e44fbe33-6084-4ae2-a95e-8bc451c63340"/>
                    <display value="buccal swab from John Storm"/>
                </specimen>
                <referenceSeq>
                    <referenceSeqId>
                        <coding>
                            <system value="http://www.ebi.ac.uk/ipd/imgt/hla/"/>
                            <version value="3.23"/>
                            <code value="HLA00401"/>
                        </coding>
                        <text value="HLA-C*01:02:01"/>
                    </referenceSeqId>
                    <windowStart value="1002"/>
                    <windowEnd value="1278"/>
                </referenceSeq>
                <observedSeq value=""/>
            </Sequence>
        </resource>
    <!--    transaction details    -->
        <request>
            <method value="POST"/>
            <url value="Sequence"/>
        </request>
    </entry>
    <entry>
        <fullUrl value="urn:uuid:2ae2ff34-279e-43c2-9018-b054fd3fc1ce"/>
        <resource>
            <Sequence>
                <text>
                    <status value="generated"/>
                    <div xmlns="http://www.w3.org/1999/xhtml">
                        <pre>"HLA-C*03:04:01:01, exon 2"</pre>
                    </div>
                </text>
                <type value="dna"/>
                <coordinateSystem value="0"/>
                <patient>
                    <reference value="urn:uuid:13f34265-335c-4853-bc38-0815315edafa"/>
                    <display value = "John Storm"/>
                </patient>
                <specimen>
                    <reference value="urn:uuid:e44fbe33-6084-4ae2-a95e-8bc451c63340"/>
                    <display value="buccal swab from John Storm"/>
                </specimen>
                <referenceSeq>
                    <referenceSeqId>
                        <coding>
                            <system value="http://www.ebi.ac.uk/ipd/imgt/hla/"/>
                            <version value="3.23"/>
                            <code value="HLA00413"/>
                        </coding>
                        <text value="HLA-C*03:04:01:01"/>
                    </referenceSeqId>
                    <windowStart value="486"/>
                    <windowEnd value="756"/>
                </referenceSeq>
                <observedSeq value=""/>
            </Sequence>
        </resource>
    <!--    transaction details    -->
        <request>
            <method value="POST"/>
            <url value="Sequence"/>
        </request>
    </entry>
    <entry>
        <fullUrl value="urn:uuid:19153ef1-68c6-47a2-9676-c4eefbd39af9"/>
        <resource>
            <Sequence>
                <text>
                    <status value="generated"/>
                    <div xmlns="http://www.w3.org/1999/xhtml">
                        <pre>"HLA-C*03:04:01:01, exon 3"</pre>
                    </div>
                </text>
                <type value="dna"/>
                <coordinateSystem value="0"/>
                <patient>
                    <reference value="urn:uuid:13f34265-335c-4853-bc38-0815315edafa"/>
                    <display value = "John Storm"/>
                </patient>
                <specimen>
                    <reference value="urn:uuid:e44fbe33-6084-4ae2-a95e-8bc451c63340"/>
                    <display value="buccal swab from John Storm"/>
                </specimen>
                <referenceSeq>
                    <referenceSeqId>
                        <coding>
                            <system value="http://www.ebi.ac.uk/ipd/imgt/hla/"/>
                            <version value="3.23"/>
                            <code value="HLA00413"/>
                        </coding>
                        <text value="HLA-C*03:04:01:01"/>
                    </referenceSeqId>
                    <windowStart value="1001"/>
                    <windowEnd value="1277"/>
                </referenceSeq>
                <observedSeq value=""/>
            </Sequence>
        </resource>
    <!--    transaction details    -->
        <request>
            <method value="POST"/>
            <url value="Sequence"/>
        </request>
    </entry>
    <entry>
        <fullUrl value="urn:uuid:b7765bbf-df40-486a-9f2f-404309643de6"/>
        <resource>
            <Observation>
                <text>
                    <status value="generated"/>
                    <div xmlns="http://www.w3.org/1999/xhtml"><pre>HLA-A:01:01:01G</pre></div>
                </text>
                <status value="final"/>
                <code>
                    <coding>
                        <system value="http://loinc.org"/>
                        <code value="57290-9"/>
                        <display value="HLA-A [Type] by High resolution"/>
                    </coding>
                </code>
                <subject>
                    <reference value="urn:uuid:13f34265-335c-4853-bc38-0815315edafa"/>
                    <display value = "John Storm"/>
                </subject>
                <effectiveDateTime value="2016-12-15"/>
                <specimen>
                    <reference value="urn:uuid:e44fbe33-6084-4ae2-a95e-8bc451c63340"/>
                    <display value="buccal swab from John Storm"/>
                </specimen>
                <extension xmlns="http://hl7.org/fhir" url="http://hl7.org/fhir/StructureDefinition/observation-geneticsGene">
                    <valueCodeableConcept>
                        <coding>
                            <system value="http://www.genenames.org"/>
                            <code value="HGNC:4931"/>
                            <display value="HLA-A"/>
                        </coding>
                    </valueCodeableConcept>
                </extension>
                <extension xmlns="http://hl7.org/fhir" url="http://hl7.org/fhir/StructureDefinition/observation-geneticsAlleleName" >
                    <valueString value="HLA-A*01:01:01G"/>
                </extension>
                <extension xmlns="http://hl7.org/fhir" url="http://hl7.org/fhir/StructureDefinition/observation-geneticsGenomicSourceClass" >
                    <valueCodeableConcept>
                        <coding>
                            <system value="http://hl7.org/fhir/LOINC-48002-0-answerlist"/>
                            <code value="LA6683-2"/>
                            <display value="germline"/>
                        </coding>
                    </valueCodeableConcept>
                </extension>
                <extension xmlns="http://hl7.org/fhir" url="http://hl7.org/fhir/StructureDefinition/observation-geneticsPhaseSet">
                    <valueUri value="urn:uuid:e13f147e-41e5-4f7a-b20a-1b52b236c5ba"/>
                </extension>
                <related>
                    <type value="derived-from"/>
                    <target>
                        <reference value="urn:uuid:8200dab6-18a2-4550-b913-a7db480c0804"/>
                        <display value="HLA-A*01:01:01:01, exon 2"/>
                    </target>
                </related>
                <related>
                    <type value="derived-from"/>
                    <target>
                        <reference value="urn:uuid:7c393185-f15c-45bc-a714-c0fdbea32675"/>
                        <display value="HLA-A*01:01:01:01, exon 3"/>
                    </target>
                </related>
            </Observation>
        </resource>
    <!--    transaction details    -->
        <request>
            <method value="POST"/>
            <url value="Observation"/>
        </request>
    </entry>
    <entry>
        <fullUrl value="urn:uuid:d98d92a7-0e86-4ae5-b036-b7e1bba6ec32"/>
        <resource>
            <Observation>
                <text>
                    <status value="generated"/>
                    <div xmlns="http://www.w3.org/1999/xhtml"><pre>HLA-A*01:02</pre></div>
                </text>
                <status value="final"/>
                <code>
                    <coding>
                        <system value="http://loinc.org"/>
                        <code value="57290-9"/>
                        <display value="HLA-A [Type] by High resolution"/>
                    </coding>
                </code>
                <subject>
                    <reference value="urn:uuid:13f34265-335c-4853-bc38-0815315edafa"/>
                    <display value = "John Storm"/>
                </subject>
                <effectiveDateTime value="2016-12-15"/>
                <specimen>
                    <reference value="urn:uuid:e44fbe33-6084-4ae2-a95e-8bc451c63340"/>
                    <display value="buccal swab from John Storm"/>
                </specimen>
                <extension xmlns="http://hl7.org/fhir" url="http://hl7.org/fhir/StructureDefinition/observation-geneticsGene">
                    <valueCodeableConcept>
                        <coding>
                            <system value="http://www.genenames.org"/>
                            <code value="HGNC:4931"/>
                            <display value="HLA-A"/>
                        </coding>
                    </valueCodeableConcept>
                </extension>
                <extension xmlns="http://hl7.org/fhir" url="http://hl7.org/fhir/StructureDefinition/observation-geneticsAlleleName" >
                    <valueString value="HLA-A*01:02"/>
                </extension>
                <extension xmlns="http://hl7.org/fhir" url="http://hl7.org/fhir/StructureDefinition/observation-geneticsGenomicSourceClass" >
                    <valueCodeableConcept>
                        <coding>
                            <system value="http://hl7.org/fhir/LOINC-48002-0-answerlist"/>
                            <code value="LA6683-2"/>
                            <display value="germline"/>
                        </coding>
                    </valueCodeableConcept>
                </extension>
                <extension xmlns="http://hl7.org/fhir" url="http://hl7.org/fhir/StructureDefinition/observation-geneticsPhaseSet">
                    <valueUri value="urn:uuid:af8e79ec-343e-4380-ba65-cec5266dc2d5"/>
                </extension>
                <related>
                    <type value="derived-from"/>
                    <target>
                        <reference value="urn:uuid:65c85f14-c3a0-4b72-818f-820e04fcc621"/>
                        <display value="HLA-A*01:02, exon 2"/>
                    </target>
                </related>
                <related>
                    <type value="derived-from"/>
                    <target>
                        <reference value="urn:uuid:fbba9fe7-0ece-4ec1-9233-a437a8d242a0"/>
                        <display value="HLA-A*01:02, exon 3"/>
                    </target>
                </related>
            </Observation>
        </resource>
    <!--    transaction details    -->
        <request>
            <method value="POST"/>
            <url value="Observation"/>
        </request>
    </entry>
    <entry>
        <fullUrl value="urn:uuid:49a86246-4004-42eb-9bdc-f542f93f9228"/>
        <resource>
            <Observation>
                <text>
                    <status value="generated"/>
                    <div xmlns="http://www.w3.org/1999/xhtml"><pre>HLA-A:01:01G+HLA-A*01:02</pre></div>
                </text>
                <status value="final"/>
                <code>
                    <coding>
                        <system value="http://loinc.org"/>
                        <code value="57290-9"/>
                        <display value="HLA-A [Type] by High resolution"/>
                    </coding>
                </code>
                <subject>
                    <reference value="urn:uuid:13f34265-335c-4853-bc38-0815315edafa"/>
                    <display value = "John Storm"/>
                </subject>
                <effectiveDateTime value="2016-12-15"/>
                <specimen>
                    <reference value="urn:uuid:e44fbe33-6084-4ae2-a95e-8bc451c63340"/>
                    <display value="buccal swab from John Storm"/>
                </specimen>
                <extension xmlns="http://hl7.org/fhir" url="http://hl7.org/fhir/StructureDefinition/observation-geneticsGene">
                    <valueCodeableConcept>
                        <coding>
                            <system value="http://www.genenames.org"/>
                            <code value="HGNC:4931"/>
                            <display value="HLA-A"/>
                        </coding>
                    </valueCodeableConcept>
                </extension>
                <extension xmlns="http://hl7.org/fhir" url="http://hl7.org/fhir/StructureDefinition/observation-geneticsGenomicSourceClass" >
                    <valueCodeableConcept>
                        <coding>
                            <system value="http://hl7.org/fhir/LOINC-48002-0-answerlist"/>
                            <code value="LA6683-2"/>
                            <display value="germline"/>
                        </coding>
                    </valueCodeableConcept>
                </extension>
                <related>
                    <type value="derived-from"/>
                    <target>
                        <reference value="urn:uuid:b7765bbf-df40-486a-9f2f-404309643de6"/>
                        <display value="HLA-A*01:01:01G, exons 2 and 3"/>
                    </target>
                </related>
                <related>
                    <type value="derived-from"/>
                    <target>
                        <reference value="urn:uuid:d98d92a7-0e86-4ae5-b036-b7e1bba6ec32"/>
                        <display value="HLA-A*01:02, exons 2 and 3"/>
                    </target>
                </related>
            </Observation>
        </resource>
    <!--    transaction details    -->
        <request>
            <method value="POST"/>
            <url value="Observation"/>
        </request>
    </entry>
    <entry>
        <fullUrl value="urn:uuid:e2092243-2970-49d2-a90f-b90d1d49715a"/>
        <resource>
            <Observation>
                <text>
                    <status value="generated"/>
                    <div xmlns="http://www.w3.org/1999/xhtml"><pre>HLA-B*15:01:01G</pre></div>
                </text>
                <status value="final"/>
                <code>
                    <coding>
                        <system value="http://loinc.org"/>
                        <code value="57291-7"/>
                        <display value="HLA-B [Type] by High resolution"/>
                    </coding>
                </code>
                <subject>
                    <reference value="urn:uuid:13f34265-335c-4853-bc38-0815315edafa"/>
                    <display value = "John Storm"/>
                </subject>
                <effectiveDateTime value="2016-12-15"/>
                <specimen>
                    <reference value="urn:uuid:e44fbe33-6084-4ae2-a95e-8bc451c63340"/>
                    <display value="buccal swab from John Storm"/>
                </specimen>
                <extension xmlns="http://hl7.org/fhir" url="http://hl7.org/fhir/StructureDefinition/observation-geneticsGene">
                    <valueCodeableConcept>
                        <coding>
                            <system value="http://www.genenames.org"/>
                            <code value="HGNC:4932"/>
                            <display value="HLA-B"/>
                        </coding>
                    </valueCodeableConcept>
                </extension>
                <extension xmlns="http://hl7.org/fhir" url="http://hl7.org/fhir/StructureDefinition/observation-geneticsAlleleName" >
                    <valueString value="HLA-B*15:01:01G"/>
                </extension>
                <extension xmlns="http://hl7.org/fhir" url="http://hl7.org/fhir/StructureDefinition/observation-geneticsGenomicSourceClass" >
                    <valueCodeableConcept>
                        <coding>
                            <system value="http://hl7.org/fhir/LOINC-48002-0-answerlist"/>
                            <code value="LA6683-2"/>
                            <display value="germline"/>
                        </coding>
                    </valueCodeableConcept>
                </extension>
                <extension xmlns="http://hl7.org/fhir" url="http://hl7.org/fhir/StructureDefinition/observation-geneticsPhaseSet">
                    <valueUri value="urn:uuid:29c67a1b-aeaa-4599-ae20-04b947ef73d8"/>
                </extension>
                <related>
                    <type value="derived-from"/>
                    <target>
                        <reference value="urn:uuid:cbabf93e-1b4b-46f2-ba1e-d84862670670"/>
                        <display value="HLA-B*15:01:01:01, exon 2"/>
                    </target>
                </related>
                <related>
                    <type value="derived-from"/>
                    <target>
                        <reference value="urn:uuid:c233ad3d-1572-48d6-93da-0a583535e138"/>
                        <display value="HLA-B*15:01:01:01, exon 3"/>
                    </target>
                </related>
            </Observation>
        </resource>
    <!--    transaction details    -->
        <request>
            <method value="POST"/>
            <url value="Observation"/>
        </request>
    </entry>
    <entry>
        <fullUrl value="urn:uuid:792be53e-d4fb-4887-a367-815ef6c706e5"/>
        <resource>
            <Observation>
                <text>
                    <status value="generated"/>
                    <div xmlns="http://www.w3.org/1999/xhtml"><pre>HLA-B*57:01:01G</pre></div>
                </text>
                <status value="final"/>
                <code>
                    <coding>
                        <system value="http://loinc.org"/>
                        <code value="57291-7"/>
                        <display value="HLA-B [Type] by High resolution"/>
                    </coding>
                </code>
                <subject>
                    <reference value="urn:uuid:13f34265-335c-4853-bc38-0815315edafa"/>
                    <display value = "John Storm"/>
                </subject>
                <effectiveDateTime value="2016-12-15"/>
                <specimen>
                    <reference value="urn:uuid:e44fbe33-6084-4ae2-a95e-8bc451c63340"/>
                    <display value="buccal swab from John Storm"/>
                </specimen>
                <extension xmlns="http://hl7.org/fhir" url="http://hl7.org/fhir/StructureDefinition/observation-geneticsGene">
                    <valueCodeableConcept>
                        <coding>
                            <system value="http://www.genenames.org"/>
                            <code value="HGNC:4932"/>
                            <display value="HLA-B"/>
                        </coding>
                    </valueCodeableConcept>
                </extension>
                <extension xmlns="http://hl7.org/fhir" url="http://hl7.org/fhir/StructureDefinition/observation-geneticsAlleleName" >
                    <valueString value="HLA-B*57:01:01G"/>
                </extension>
                <extension xmlns="http://hl7.org/fhir" url="http://hl7.org/fhir/StructureDefinition/observation-geneticsGenomicSourceClass" >
                    <valueCodeableConcept>
                        <coding>
                            <system value="http://hl7.org/fhir/LOINC-48002-0-answerlist"/>
                            <code value="LA6683-2"/>
                            <display value="germline"/>
                        </coding>
                    </valueCodeableConcept>
                </extension>
                <extension xmlns="http://hl7.org/fhir" url="http://hl7.org/fhir/StructureDefinition/observation-geneticsPhaseSet">
                    <valueUri value="urn:uuid:a19a3557-b36c-4b35-ab8b-4783022066b9"/>
                </extension>
                <related>
                    <type value="derived-from"/>
                    <target>
                        <reference value="urn:uuid:05fa52d7-5c67-460a-8722-d3460b24d6fe"/>
                        <display value="HLA-B*57:01:01, exon 2"/>
                    </target>
                </related>
                <related>
                    <type value="derived-from"/>
                    <target>
                        <reference value="urn:uuid:db69e549-6267-4777-b4b9-8813f3329309"/>
                        <display value="HLA-B*57:01:01, exon 3"/>
                    </target>
                </related>
            </Observation>
        </resource>
    <!--    transaction details    -->
        <request>
            <method value="POST"/>
            <url value="Observation"/>
        </request>
    </entry>
    <entry>
        <fullUrl value="urn:uuid:60613a43-c4cb-4502-b3e2-cf9215feaa70"/>
        <resource>
            <Observation>
                <text>
                    <status value="generated"/>
                    <div xmlns="http://www.w3.org/1999/xhtml"><pre>HLA-B*15:01:01G+HLA-B*57:01:01G</pre></div>
                </text>
                <status value="final"/>
                <code>
                    <coding>
                        <system value="http://loinc.org"/>
                        <code value="57291-7"/>
                        <display value="HLA-B [Type] by High resolution"/>
                    </coding>
                </code>
                <subject>
                    <reference value="urn:uuid:13f34265-335c-4853-bc38-0815315edafa"/>
                    <display value = "John Storm"/>
                </subject>
                <effectiveDateTime value="2016-12-15"/>
                <specimen>
                    <reference value="urn:uuid:e44fbe33-6084-4ae2-a95e-8bc451c63340"/>
                    <display value="buccal swab from John Storm"/>
                </specimen>
                <extension xmlns="http://hl7.org/fhir" url="http://hl7.org/fhir/StructureDefinition/observation-geneticsGene">
                    <valueCodeableConcept>
                        <coding>
                            <system value="http://www.genenames.org"/>
                            <code value="HGNC:4932"/>
                            <display value="HLA-B"/>
                        </coding>
                    </valueCodeableConcept>
                </extension>
                <extension xmlns="http://hl7.org/fhir" url="http://hl7.org/fhir/StructureDefinition/observation-geneticsGenomicSourceClass" >
                    <valueCodeableConcept>
                        <coding>
                            <system value="http://hl7.org/fhir/LOINC-48002-0-answerlist"/>
                            <code value="LA6683-2"/>
                            <display value="germline"/>
                        </coding>
                    </valueCodeableConcept>
                </extension>
                <related>
                    <type value="derived-from"/>
                    <target>
                        <reference value="urn:uuid:e2092243-2970-49d2-a90f-b90d1d49715a"/>
                        <display value="HLA-B*15:01:01G, exons 2 and 3"/>
                    </target>
                </related>
                <related>
                    <type value="derived-from"/>
                    <target>
                        <reference value="urn:uuid:792be53e-d4fb-4887-a367-815ef6c706e5"/>
                        <display value="HLA-B*57:01:01G, exons 2 and 3"/>
                    </target>
                </related>
            </Observation>
        </resource>
    <!--    transaction details    -->
        <request>
            <method value="POST"/>
            <url value="Observation"/>
        </request>
    </entry>
    <entry>
        <fullUrl value="urn:uuid:709c5315-9403-4867-9d82-0b953836665f"/>
        <resource>
            <Observation>
                <text>
                    <status value="generated"/>
                    <div xmlns="http://www.w3.org/1999/xhtml"><pre>HLA-C*01:02:01</pre></div>
                </text>
                <status value="final"/>
                <code>
                    <coding>
                        <system value="http://loinc.org"/>
                        <code value="77636-9"/>
                        <display value="HLA-C [Type] by High resolution"/>
                    </coding>
                </code>
                <subject>
                    <reference value="urn:uuid:13f34265-335c-4853-bc38-0815315edafa"/>
                    <display value = "John Storm"/>
                </subject>
                <effectiveDateTime value="2016-12-15"/>
                <specimen>
                    <reference value="urn:uuid:e44fbe33-6084-4ae2-a95e-8bc451c63340"/>
                    <display value="buccal swab from John Storm"/>
                </specimen>
                <extension xmlns="http://hl7.org/fhir" url="http://hl7.org/fhir/StructureDefinition/observation-geneticsGene">
                    <valueCodeableConcept>
                        <coding>
                            <system value="http://www.genenames.org"/>
                            <code value="HGNC:4933"/>
                            <display value="HLA-C"/>
                        </coding>
                    </valueCodeableConcept>
                </extension>
                <extension xmlns="http://hl7.org/fhir" url="http://hl7.org/fhir/StructureDefinition/observation-geneticsAlleleName" >
                    <valueString value="HLA-C*01:02:01"/>
                </extension>
                <extension xmlns="http://hl7.org/fhir" url="http://hl7.org/fhir/StructureDefinition/observation-geneticsGenomicSourceClass" >
                    <valueCodeableConcept>
                        <coding>
                            <system value="http://hl7.org/fhir/LOINC-48002-0-answerlist"/>
                            <code value="LA6683-2"/>
                            <display value="germline"/>
                        </coding>
                    </valueCodeableConcept>
                </extension>
                <extension xmlns="http://hl7.org/fhir" url="http://hl7.org/fhir/StructureDefinition/observation-geneticsPhaseSet">
                    <valueUri value="urn:uuid:79383455-4f55-4126-bcc2-03385cad7944"/>
                </extension>
                <related>
                    <type value="derived-from"/>
                    <target>
                        <reference value="urn:uuid:bb55c2bc-5ad2-4bc1-8ff3-c407d06b12d0"/>
                        <display value="HLA-C*01:02:01, exon 2"/>
                    </target>
                </related>
                <related>
                    <type value="derived-from"/>
                    <target>
                        <reference value="urn:uuid:46938bb2-0486-4e87-bfd3-89aab2d5e22f"/>
                        <display value="HLA-C*01:02:01, exon 3"/>
                    </target>
                </related>
            </Observation>
        </resource>
    <!--    transaction details    -->
        <request>
            <method value="POST"/>
            <url value="Observation"/>
        </request>
    </entry>
    <entry>
        <fullUrl value="urn:uuid:8b2aa21c-1426-4717-8ab0-a84d83df7d47"/>
        <resource>
            <Observation>
                <text>
                    <status value="generated"/>
                    <div xmlns="http://www.w3.org/1999/xhtml"><pre>HLA-C*03:04:01:01</pre></div>
                </text>
                <status value="final"/>
                <code>
                    <coding>
                        <system value="http://loinc.org"/>
                        <code value="77636-9"/>
                        <display value="HLA-C [Type] by High resolution"/>
                    </coding>
                </code>
                <subject>
                    <reference value="urn:uuid:13f34265-335c-4853-bc38-0815315edafa"/>
                    <display value = "John Storm"/>
                </subject>
                <effectiveDateTime value="2016-12-15"/>
                <specimen>
                    <reference value="urn:uuid:e44fbe33-6084-4ae2-a95e-8bc451c63340"/>
                    <display value="buccal swab from John Storm"/>
                </specimen>
                <extension xmlns="http://hl7.org/fhir" url="http://hl7.org/fhir/StructureDefinition/observation-geneticsGene">
                    <valueCodeableConcept>
                        <coding>
                            <system value="http://www.genenames.org"/>
                            <code value="HGNC:4933"/>
                            <display value="HLA-C"/>
                        </coding>
                    </valueCodeableConcept>
                </extension>
                <extension xmlns="http://hl7.org/fhir" url="http://hl7.org/fhir/StructureDefinition/observation-geneticsAlleleName" >
                    <valueString value="HLA-C*03:04:01:01"/>
                </extension>
                <extension xmlns="http://hl7.org/fhir" url="http://hl7.org/fhir/StructureDefinition/observation-geneticsGenomicSourceClass" >
                    <valueCodeableConcept>
                        <coding>
                            <system value="http://hl7.org/fhir/LOINC-48002-0-answerlist"/>
                            <code value="LA6683-2"/>
                            <display value="germline"/>
                        </coding>
                    </valueCodeableConcept>
                </extension>
                <extension xmlns="http://hl7.org/fhir" url="http://hl7.org/fhir/StructureDefinition/observation-geneticsPhaseSet">
                    <valueUri value="urn:uuid:a220b7a5-2d7a-4cec-a5b1-bfcf5890e391"/>
                </extension>
                <related>
                    <type value="derived-from"/>
                    <target>
                        <reference value="urn:uuid:2ae2ff34-279e-43c2-9018-b054fd3fc1ce"/>
                        <display value="HLA-C*03:04:01:01, exon 2"/>
                    </target>
                </related>
                <related>
                    <type value="derived-from"/>
                    <target>
                        <reference value="urn:uuid:19153ef1-68c6-47a2-9676-c4eefbd39af9"/>
                        <display value="HLA-C*03:04:01:01, exon 3"/>
                    </target>
                </related>
            </Observation>
        </resource>
    <!--    transaction details    -->
        <request>
            <method value="POST"/>
            <url value="Observation"/>
        </request>
    </entry>
    <entry>
        <fullUrl value="urn:uuid:0e0a780e-4486-4cd0-bfae-7243c579f208"/>
        <resource>
            <Observation>
                <text>
                    <status value="generated"/>
                    <div xmlns="http://www.w3.org/1999/xhtml"><pre>HLA-C*01:02:01G+HLA-C*03:04:01G</pre></div>
                </text>
                <status value="final"/>
                <code>
                    <coding>
                        <system value="http://loinc.org"/>
                        <code value="77636-9"/>
                        <display value="HLA-C [Type] by High resolution"/>
                    </coding>
                </code>
                <subject>
                    <reference value="urn:uuid:13f34265-335c-4853-bc38-0815315edafa"/>
                    <display value = "John Storm"/>
                </subject>
                <effectiveDateTime value="2016-12-15"/>
                <specimen>
                    <reference value="urn:uuid:e44fbe33-6084-4ae2-a95e-8bc451c63340"/>
                    <display value="buccal swab from John Storm"/>
                </specimen>
                <extension xmlns="http://hl7.org/fhir" url="http://hl7.org/fhir/StructureDefinition/observation-geneticsGene">
                    <valueCodeableConcept>
                        <coding>
                            <system value="http://www.genenames.org"/>
                            <code value="HGNC:4933"/>
                            <display value="HLA-C"/>
                        </coding>
                    </valueCodeableConcept>
                </extension>
                <extension xmlns="http://hl7.org/fhir" url="http://hl7.org/fhir/StructureDefinition/observation-geneticsGenomicSourceClass" >
                    <valueCodeableConcept>
                        <coding>
                            <system value="http://hl7.org/fhir/LOINC-48002-0-answerlist"/>
                            <code value="LA6683-2"/>
                            <display value="germline"/>
                        </coding>
                    </valueCodeableConcept>
                </extension>
                <related>
                    <type value="derived-from"/>
                    <target>
                        <reference value="urn:uuid:709c5315-9403-4867-9d82-0b953836665f"/>
                        <display value="HLA-C*01:02:01G, exons 2 and 3"/>
                    </target>
                </related>
                <related>
                    <type value="derived-from"/>
                    <target>
                        <reference value="urn:uuid:8b2aa21c-1426-4717-8ab0-a84d83df7d47"/>
                        <display value="HLA-C*03:04:01G, exons 2 and 3"/>
                    </target>
                </related>
            </Observation>
        </resource>
    <!--    transaction details    -->
        <request>
            <method value="POST"/>
            <url value="Observation"/>
        </request>
    </entry>
    <entry>
        <fullUrl value="urn:uuid:b0a4b18e-94e7-4b1b-8031-c7ae4bdd8db9"/>
        <resource>
            <DiagnosticReport>
                <text>
                    <status value="generated"/>
                    <div xmlns="http://www.w3.org/1999/xhtml"><pre>
HLA-A,-B,-C genotyping report for John Storm (MRN:12345)

LOCUS   ALLELE 1            ALLELE 2
HLA-A   HLA-A:01:01G        HLA-A*01:02
HLA-B   HLA-B*15:01:01G     HLA-B*57:01:01G
HLA-C   HLA-C*01:02:01G     HLA-C*03:04:01G

Allele assignments based on IMGT/HLA 3.23
Effective date: 2015-12-15
Method: Sequencing of exons 2 and 3 of HLA Class I genes
Lab: aTypingLab Inc
                    </pre></div>
                </text>
                <status value="final"/>
                <basedOn>
                    <reference value="urn:uuid:99309303-045e-4cf4-90d7-250d7a7476ea"/>
                    <display value="Class I HLA genotyping for John Storm"/>
                </basedOn>
                <code>
                    <coding>
                        <system value="http://loinc.org"/>
                        <code value="13303-3"/>
                        <display value="HLA-A+​B+​C (class I) [Type]"/>
                    </coding>
                </code>
                <category>
                    <coding>
                        <system value="http://hl7.org/fhir/ValueSet/diagnostic-service-sections"/>
                        <code value="GE"/>
                        <display value="Genetics"/>
                    </coding>
                </category>
                <effectiveDateTime value="2016-12-15"/>
                <issued value="2016-12-15T14:15:30-06:00"/>

                <subject>
                    <reference value="urn:uuid:13f34265-335c-4853-bc38-0815315edafa"/>
                    <display value = "John Storm"/>
                </subject>
                <specimen>
                    <reference value="urn:uuid:e44fbe33-6084-4ae2-a95e-8bc451c63340"/>
                    <display value="buccal swab from John Storm"/>
                </specimen>

                <performer>
                    <reference value="urn:uuid:9243cc20-27bd-4f87-ba90-0328ed474950"/>
                    <display value="aTypingLab Inc"/>
                </performer>

                <result>
                    <reference value="urn:uuid:49a86246-4004-42eb-9bdc-f542f93f9228"/>
                    <display value="HLA-A: HLA-A:01:01:01G+HLA-A*01:02"/>
                </result>

                <result>
                    <reference value="urn:uuid:60613a43-c4cb-4502-b3e2-cf9215feaa70"/>
                    <display value="HLA-B: HLA-B*15:01:01G+HLA-B*57:01:01G"/>
                </result>

                <result>
                    <reference value="urn:uuid:0e0a780e-4486-4cd0-bfae-7243c579f208"/>
                    <display value="HLA-C: HLA-C*01:02:01G+HLA-C*03:04:01G"/>
                </result>

                <extension xmlns="http://hl7.org/fhir" url="http://hl7.org/fhir/StructureDefinition/hla-genotyping-resultsAlleleDatabase" >
                    <valueCodeableConcept>
                        <coding>
                            <system value="http://www.ebi.ac.uk/ipd/imgt/hla/"/>
                            <version value="3.23"/>
                        </coding>
                    </valueCodeableConcept>
                </extension>

                <extension xmlns="http://hl7.org/fhir" url="http://hl7.org/fhir/StructureDefinition/hla-genotyping-resultsGlstring">
                   <extension url="text">
                        <valueString value="HLA-A*01:01:01G+HLA-A*01:02^HLA-B*15:01:01G+HLA-B*57:01:01G^HLA-C*01:02:01G+HLA-C*03:04:01G"/>
                    </extension>
                    <extension url="uri">
                        <valueUri value="https://gl.nmdp.org/imgt-hla/3.23.0/multilocus-unphased-genotype/ex"/>
                    </extension>
                </extension>

                 <extension xmlns="http://hl7.org/fhir" url="http://hl7.org/fhir/StructureDefinition/hla-genotyping-results-method" >
                    <valueCodeableConcept>
                        <coding>
                            <system value="http://www.ncbi.nlm.nih.gov/gtr/"/>
                            <code value="GTR000000000.0"/>
                        </coding>
                        <text value="NGS based Class I HLA-A, -B, -C genotyping"/>
                    </valueCodeableConcept>
                </extension>

            </DiagnosticReport>
        </resource>
    <!--    transaction details    -->
        <request>
            <method value="POST"/>
            <url value="DiagnosticReport"/>
        </request>
    </entry>

</Bundle>
