<!--
Bob Milius - NMDP - 2016-05-09

Transaction bundle that creates and links:
+ Patient

+ Specimen from that Patient, which was collected as a buccal swab
    - points to Patient

+ Sequence from that Specimen
	- single sequence
	- uses HLA-A*01:01:01:01 from IPD-IMGT/HLA as reference 
    - G->T substitution at position 5 (I made this up)
    - points to Patient and Specimen

+ Observation with genomics extensions that includes
    - LOINC for HLA-A high resolution,
    - targeting the HLA-A gene,
    - source is "germline"
    - resulting in a single allele assignment HLA-A:01:01:01:01, even though there is novel variation!!
	- points to Patient, Sample, and Sequence
-->

<Bundle xmlns="http://hl7.org/fhir">
  <type value="transaction"/>
<!--    each entry is an action to take in the transaction    -->
  <entry>
    <fullUrl value="urn:uuid:5ae68c59-1be0-465a-819b-9a8bf15d7ab0"/>
    <resource>
      <Patient>
         <text>
          <status value="generated"/>
          <div xmlns="http://www.w3.org/1999/xhtml">Some narrative</div>
        </text>
        <name>
          <use value="official"/>
          <family value="Doe"/>
          <given value="John"/>
          <given value="James"/>
        </name>
        <gender value="male"/>
        <birthDate value="1974-12-25"/>
      </Patient>
    </resource>
  <!--    details about the action to take with the resource    -->
    <request>
      <method value="POST"/>
      <url value="Patient"/>
    </request>
  </entry>

  <entry>
    <fullUrl value="urn:uuid:e44fbe33-6084-4ae2-a95e-8bc451c63340"/>
    <resource>
        <Specimen xmlns="http://hl7.org/fhir">
            <text>
                <status value="generated"/>
                <div xmlns="http://www.w3.org/1999/xhtml"><pre>a buccal swab</pre></div>
            </text>
  
            <identifier>  <!--  a specimen identifier - e.g. assigned when the specimen was taken -->
                <system value="http://myorg.com"/>
                <value value="123"/>
            </identifier>
  
            <accessionIdentifier>
                <system value="http://mylab.com"/>
                <value value="456"/>
            </accessionIdentifier>
  
            <type>
                <coding>
                <system value="http://snomed.info/sct"/>
                <code value="258564008"/>
                    <display value="Buccal smear sample"/>
                </coding>
            </type>
  
            <subject>
                <reference value="urn:uuid:5ae68c59-1be0-465a-819b-9a8bf15d7ab0"/>
            </subject>
  
            <collection>
                <method>
                    <coding>
                        <system value="http://hl7.org/fhir/v2/0488"/>
                        <code value="SWA"/>
                    </coding>
                </method>
            </collection>
        </Specimen>
    </resource>
      <!--    details about the action to take with the resource    -->
    <request>
      <method value="POST"/>
      <url value="Specimen"/>
    </request>
  </entry>

  <entry>
    <fullUrl value="urn:uuid:5c37cf69-8ef6-44fb-bebe-ca9ca0ae520f"/>
    <resource>
        <Sequence xmlns="http://hl7.org/fhir">
            <text>
                <status value="generated"/>
                <div xmlns="http://www.w3.org/1999/xhtml">
                    <pre>"HLA-A*01:01:01:01 with G->T substitution at position 5 (0-base coordinate)"</pre>
                </div>
            </text>
            <type value="DNA"/>
            <specimen>
                <reference value="urn:uuid:e44fbe33-6084-4ae2-a95e-8bc451c63340"/>
            </specimen>
            <patient>
                <reference value="urn:uuid:5ae68c59-1be0-465a-819b-9a8bf15d7ab0"/>
            </patient>
            <referenceSeq>
                <referenceSeqId>
                    <coding>
                        <system value="http://www.ebi.ac.uk/ipd/imgt/hla/"/>
                        <version value="3.23"/>
                        <code value="HLA00001"/>
                    </coding>
                    <text value="HLA-A*01:01:01:01"/>
                </referenceSeqId>
                <windowStart value="0"/>
                <windowEnd value="3503"/>
            </referenceSeq>
            <variation>
                <start value="5"/>
                <end value="6"/>
                <referenceAllele value="G"/>
                <observedAllele value="T"/>
            </variation>
        </Sequence>
    </resource>
  <!--    transaction details    -->
    <request>
      <method value="POST"/>
      <url value="Sequence"/>
    </request>
  </entry>

  <entry>
    <fullUrl value="urn:uuid:5d13e642-3734-4f28-85d8-fdf3d8d41af0"/>
    <resource>
        <Observation>
            <status value="final"/>
            <text>
                <status value="generated"/>
                <div xmlns="http://www.w3.org/1999/xhtml"><pre>Some narrative about Observation</pre></div>
            </text>
            <subject>
                <reference value="urn:uuid:5ae68c59-1be0-465a-819b-9a8bf15d7ab0"/>
            </subject>
            <specimen>
                <reference value="urn:uuid:e44fbe33-6084-4ae2-a95e-8bc451c63340"/>
            </specimen>
            <code>
                <coding>
                    <system value="http://loinc.org"/>
                    <code value="57290-9"/>
                    <display value="HLA-A [Type] by High resolution"/>
                </coding>
            </code>
            <extension url="http://hl7.org/fhir/StructureDefinition/observation-geneticsGene">
               <valueCodeableConcept>
                    <coding>
                        <system value="http://www.genenames.org"/>
                        <code value="4931"/>
                        <display value="HLA-A"/>
                    </coding>
                </valueCodeableConcept>
            </extension>
            <extension xmlns="http://hl7.org/fhir" url="http://hl7.org/fhir/StructureDefinition/observation-geneticsAlleleName" >
                <valueString value="HLA-A*01:01:01:01"/>
            </extension>
            <extension xmlns="http://hl7.org/fhir" url="http://hl7.org/fhir/StructureDefinition/observation-geneticsGenomicSourceClass" >
                <valueCodeableConcept>
                    <coding>
                        <system value="http://hl7.org/fhir/LOINC-48002-0-answerlist"/>
                        <code value="LA6683-2"/>
                        <display value="germline"/>
                    </coding>
                </valueCodeableConcept>
            </extension>
            <extension xmlns="http://hl7.org/fhir" url="http://hl7.org/fhir/StructureDefinition/observation-geneticsSequence" >
                <valueReference value="urn:uuid:5c37cf69-8ef6-44fb-bebe-ca9ca0ae520f"/>
            </extension>
        </Observation>
    </resource>
  <!--    transaction details    -->
    <request>
      <method value="POST"/>
      <url value="Observation"/>
    </request>
  </entry>
</Bundle>
